Label,Acc X,Acc Y,Acc Z,Gyro X,Gyro Y,Gyro Z
3,-4.065953255,-16.69237518,2.615665436,1.664607644,-0.681635559,0.727575064
3,-4.065953255,-16.69237518,2.615665436,1.664607644,-0.681635559,0.727575064
3,-2.480991602,-11.77947235,1.533486247,1.664607644,-0.681635559,0.727575064
3,-2.480991602,-11.77947235,1.533486247,1.664607644,-0.681635559,0.727575064
3,-2.706046581,-4.204218388,4.210203648,1.664607644,-0.681635559,0.727575064
3,1.325789213,-14.38915253,3.946841478,1.664607644,-0.681635559,0.727575064
3,1.325789213,-14.38915253,3.946841478,1.664607644,-0.681635559,0.727575064
3,1.325789213,-14.38915253,3.946841478,1.664607644,-0.681635559,0.727575064
3,1.325789213,-14.38915253,3.946841478,1.664607644,-0.681635559,0.727575064
3,1.325789213,-14.38915253,3.946841478,1.664607644,-0.681635559,0.727575064
3,1.325789213,-14.38915253,3.946841478,1.664607644,-0.681635559,0.727575064
3,0.770334423,-7.297526836,0.877474904,1.664607644,-0.681635559,0.727575064
3,-0.354940414,-8.288725853,2.103306293,-1.995904565,-0.449274927,-0.550874472
3,-0.354940414,-8.288725853,2.103306293,-1.995904565,-0.449274927,-0.550874472
3,-0.354940414,-8.288725853,2.103306293,-1.995904565,-0.449274927,-0.550874472
3,-0.354940414,-8.288725853,2.103306293,-1.995904565,-0.449274927,-0.550874472
3,-0.354940414,-8.288725853,2.103306293,-1.995904565,-0.449274927,-0.550874472
3,-1.398812294,-13.30697346,-1.315613866,-1.995904565,-0.449274927,-0.550874472
3,0.530914247,-12.20085144,-4.437653065,-1.995904565,-0.449274927,-0.550874472
3,5.391143799,-12.67011547,-2.541445017,-1.995904565,-0.449274927,-0.550874472
3,5.391143799,-12.67011547,-2.541445017,-1.995904565,-0.449274927,-0.550874472
3,5.391143799,-12.67011547,-2.541445017,-1.995904565,-0.449274927,-0.550874472
3,5.391143799,-12.67011547,-2.541445017,-1.995904565,-0.449274927,-0.550874472
3,5.391143799,-12.67011547,-2.541445017,-1.995904565,-0.449274927,-0.550874472
3,5.391143799,-12.67011547,-2.541445017,-1.995904565,-0.449274927,-0.550874472
3,0.63147068,-12.25352383,2.562992811,-1.995904565,-0.449274927,-0.550874472
3,-2.466626406,-6.191405773,1.734599113,0.435426503,-0.359659642,0.044208441
3,-2.466626406,-6.191405773,1.734599113,0.435426503,-0.359659642,0.044208441
3,-2.466626406,-6.191405773,1.734599113,0.435426503,-0.359659642,0.044208441
3,-2.466626406,-6.191405773,1.734599113,0.435426503,-0.359659642,0.044208441
3,-0.16819267,-5.434837818,2.721010208,0.435426503,-0.359659642,0.044208441
3,0.636259079,-7.010222435,-0.621295333,0.435426503,-0.359659642,0.044208441
3,0.248398423,-8.255207062,-0.673967779,0.435426503,-0.359659642,0.044208441
3,-1.575983286,-2.700659513,-0.472854823,0.706003487,0.7483477,0.428768605
3,-1.575983286,-2.700659513,-0.472854823,0.706003487,0.7483477,0.428768605
3,-1.575983286,-2.700659513,-0.472854823,0.706003487,0.7483477,0.428768605
3,-1.575983286,-2.700659513,-0.472854823,0.706003487,0.7483477,0.428768605
3,-1.575983286,-2.700659513,-0.472854823,0.706003487,0.7483477,0.428768605
3,-1.575983286,-2.700659513,-0.472854823,0.706003487,0.7483477,0.428768605
3,-1.575983286,-2.700659513,-0.472854823,0.706003487,0.7483477,0.428768605
3,7.636904716,-21.47120094,-12.47738171,0.706003487,0.7483477,0.428768605
3,4.873996258,-12.89517021,-6.592434406,0.706003487,0.7483477,0.428768605
3,-2.591124773,-10.36689377,-1.119289279,0.706003487,0.7483477,0.428768605
3,-2.030881643,-11.45864964,3.870227098,0.632899761,0.927445173,0.382562816
3,-2.030881643,-11.45864964,3.870227098,0.632899761,0.927445173,0.382562816
3,-2.030881643,-11.45864964,3.870227098,0.632899761,0.927445173,0.382562816
3,-2.030881643,-11.45864964,3.870227098,0.632899761,0.927445173,0.382562816
3,-2.030881643,-11.45864964,3.870227098,0.632899761,0.927445173,0.382562816
3,-2.030881643,-11.45864964,3.870227098,0.632899761,0.927445173,0.382562816
3,-2.030881643,-11.45864964,3.870227098,0.632899761,0.927445173,0.382562816
3,-0.503380895,-11.90875912,3.582922935,0.632899761,0.927445173,0.382562816
3,-0.273537546,-8.489839554,2.926911592,0.632899761,0.927445173,0.382562816
3,-0.273537546,-8.489839554,2.926911592,0.632899761,0.927445173,0.382562816
3,2.369661093,-7.12993288,-5.821501255,0.632899761,0.927445173,0.382562816
3,-0.29747957,-12.06677628,-3.034650564,-2.515220642,-0.064048976,-0.751543522
3,-0.29747957,-12.06677628,-3.034650564,-2.515220642,-0.064048976,-0.751543522
3,-0.29747957,-12.06677628,-3.034650564,-2.515220642,-0.064048976,-0.751543522
3,-0.29747957,-12.06677628,-3.034650564,-2.515220642,-0.064048976,-0.751543522
3,-0.29747957,-12.06677628,-3.034650564,-2.515220642,-0.064048976,-0.751543522
3,-0.29747957,-12.06677628,-3.034650564,-2.515220642,-0.064048976,-0.751543522
3,-0.29747957,-12.06677628,-3.034650564,-2.515220642,-0.064048976,-0.751543522
3,1.455076098,-11.50174522,1.294066072,-2.515220642,-0.064048976,-0.751543522
3,2.221220732,-11.73158836,2.290053844,-2.515220642,-0.064048976,-0.751543522
3,2.221220732,-11.73158836,2.290053844,-2.515220642,-0.064048976,-0.751543522
3,4.376002312,-13.66131496,-3.321954966,-2.515220642,-0.064048976,-0.751543522
3,-4.238335609,-13.14416695,-1.703474522,0.618785024,-0.444481254,0.015313165
3,-4.238335609,-13.14416695,-1.703474522,0.618785024,-0.444481254,0.015313165
3,-4.238335609,-13.14416695,-1.703474522,0.618785024,-0.444481254,0.015313165
3,-4.238335609,-13.14416695,-1.703474522,0.618785024,-0.444481254,0.015313165
3,-4.238335609,-13.14416695,-1.703474522,0.618785024,-0.444481254,0.015313165
3,-4.238335609,-13.14416695,-1.703474522,0.618785024,-0.444481254,0.015313165
3,-4.238335609,-13.14416695,-1.703474522,0.618785024,-0.444481254,0.015313165
3,-4.238335609,-13.14416695,-1.703474522,0.618785024,-0.444481254,0.015313165
3,1.009754539,-7.65186882,-0.611718535,0.618785024,-0.444481254,0.015313165
3,0.636259079,-9.600749016,-0.243011475,0.618785024,-0.444481254,0.015313165
3,0.262763649,-5.650316238,-2.732981205,0.618785024,-0.444481254,0.015313165
3,0.262763649,-5.650316238,-2.732981205,0.618785024,-0.444481254,0.015313165
3,0.262763649,-5.650316238,-2.732981205,0.618785024,-0.444481254,0.015313165
3,0.262763649,-5.650316238,-2.732981205,0.618785024,-0.444481254,0.015313165
3,0.262763649,-5.650316238,-2.732981205,0.618785024,-0.444481254,0.015313165
3,0.262763649,-5.650316238,-2.732981205,0.618785024,-0.444481254,0.015313165
3,3.542819977,-16.93179512,-13.17170048,0.618785024,-0.444481254,0.015313165
3,-3.079541922,-17.82243729,4.396951199,1.430382729,-0.837430358,0.731303513
3,-3.079541922,-17.82243729,4.396951199,1.430382729,-0.837430358,0.731303513
3,-3.079541922,-17.82243729,4.396951199,1.430382729,-0.837430358,0.731303513
3,-3.079541922,-17.82243729,4.396951199,1.430382729,-0.837430358,0.731303513
3,-3.079541922,-17.82243729,4.396951199,1.430382729,-0.837430358,0.731303513
3,-2.859275341,-4.510675907,3.23336935,1.430382729,-0.837430358,0.731303513
3,-2.169745207,-1.273715258,2.773682594,1.430382729,-0.837430358,0.731303513
3,0.234033212,-8.374917984,0.724246025,1.430382729,-0.837430358,0.731303513
3,0.234033212,-8.374917984,0.724246025,1.430382729,-0.837430358,0.731303513
3,0.234033212,-8.374917984,0.724246025,1.430382729,-0.837430358,0.731303513
3,0.234033212,-8.374917984,0.724246025,1.430382729,-0.837430358,0.731303513
3,0.234033212,-8.374917984,0.724246025,1.430382729,-0.837430358,0.731303513
3,0.234033212,-8.374917984,0.724246025,1.430382729,-0.837430358,0.731303513
3,2.168548107,-8.015787125,-7.530961514,1.430382729,-0.837430358,0.731303513
3,-1.738788962,-12.9382658,1.212663174,-2.404965878,-0.092677936,-1.004011035
3,-1.738788962,-12.9382658,1.212663174,-2.404965878,-0.092677936,-1.004011035
3,-1.738788962,-12.9382658,1.212663174,-2.404965878,-0.092677936,-1.004011035
3,-1.738788962,-12.9382658,1.212663174,-2.404965878,-0.092677936,-1.004011035
3,-1.738788962,-12.9382658,1.212663174,-2.404965878,-0.092677936,-1.004011035
3,2.41754508,-10.97502041,-2.263717651,-2.404965878,-0.092677936,-1.004011035
3,2.56598568,-11.05642319,2.084152699,-2.404965878,-0.092677936,-1.004011035
3,3.030460835,-11.30542088,1.787271619,-2.404965878,-0.092677936,-1.004011035
3,-5.2391119,-16.55351067,3.01310277,-2.404965878,-0.092677936,-1.004011035
3,-5.2391119,-16.55351067,3.01310277,-2.404965878,-0.092677936,-1.004011035
3,-5.2391119,-16.55351067,3.01310277,-2.404965878,-0.092677936,-1.004011035
3,-5.2391119,-16.55351067,3.01310277,-2.404965878,-0.092677936,-1.004011035
3,-5.2391119,-16.55351067,3.01310277,-2.404965878,-0.092677936,-1.004011035
3,-5.2391119,-16.55351067,3.01310277,-2.404965878,-0.092677936,-1.004011035
3,-4.803367138,-7.019799232,-1.200692177,-2.404965878,-0.092677936,-1.004011035
3,1.325789213,-9.538499832,0.671573579,1.119458914,0.411990702,0.173771128
3,1.325789213,-9.538499832,0.671573579,1.119458914,0.411990702,0.173771128
3,1.325789213,-9.538499832,0.671573579,1.119458914,0.411990702,0.173771128
3,1.325789213,-9.538499832,0.671573579,1.119458914,0.411990702,0.173771128
3,1.325789213,-9.538499832,0.671573579,1.119458914,0.411990702,0.173771128
3,-2.385223389,-4.788403511,0.63326633,1.119458914,0.411990702,0.173771128
3,-2.753930569,-3.687070608,0.470460624,1.119458914,0.411990702,0.173771128
3,8.173206329,-20.6715374,-13.4590044,1.119458914,0.411990702,0.173771128
3,8.173206329,-20.6715374,-13.4590044,1.119458914,0.411990702,0.173771128
3,8.173206329,-20.6715374,-13.4590044,1.119458914,0.411990702,0.173771128
3,8.173206329,-20.6715374,-13.4590044,1.119458914,0.411990702,0.173771128
3,8.173206329,-20.6715374,-13.4590044,1.119458914,0.411990702,0.173771128
3,8.173206329,-20.6715374,-13.4590044,1.119458914,0.411990702,0.173771128
3,-1.303044319,-10.74996567,-2.163161278,1.119458914,0.411990702,0.173771128
3,-3.898358822,-2.762908697,2.534262419,1.330114841,0.27896592,0.297608018
3,-3.898358822,-2.762908697,2.534262419,1.330114841,0.27896592,0.297608018
3,-3.898358822,-2.762908697,2.534262419,1.330114841,0.27896592,0.297608018
3,-3.898358822,-2.762908697,2.534262419,1.330114841,0.27896592,0.297608018
3,-3.898358822,-2.762908697,2.534262419,1.330114841,0.27896592,0.297608018
3,-2.619855165,-2.56658411,3.444059134,1.330114841,0.27896592,0.297608018
3,-2.193687201,-10.21366405,3.875015497,1.330114841,0.27896592,0.297608018
3,-0.761954665,-12.37323475,3.922899485,1.330114841,0.27896592,0.297608018
3,0.487818599,-10.0364933,1.164779186,-1.304681659,-0.455000728,0.083090566
3,0.487818599,-10.0364933,1.164779186,-1.304681659,-0.455000728,0.083090566
3,0.487818599,-10.0364933,1.164779186,-1.304681659,-0.455000728,0.083090566
3,0.487818599,-10.0364933,1.164779186,-1.304681659,-0.455000728,0.083090566
3,0.487818599,-10.0364933,1.164779186,-1.304681659,-0.455000728,0.083090566
3,0.487818599,-10.0364933,1.164779186,-1.304681659,-0.455000728,0.083090566
3,0.487818599,-10.0364933,1.164779186,-1.304681659,-0.455000728,0.083090566
3,-0.963067651,-8.724471092,2.136825085,-1.304681659,-0.455000728,0.083090566
3,-2.366069794,-12.5551939,0.973242998,-1.304681659,-0.455000728,0.083090566
3,1.814206362,-11.16655636,-0.353144765,-1.304681659,-0.455000728,0.083090566
3,1.814206362,-11.16655636,-0.353144765,-1.304681659,-0.455000728,0.083090566
3,1.814206362,-11.16655636,-0.353144765,-1.304681659,-0.455000728,0.083090566
3,1.814206362,-11.16655636,-0.353144765,-1.304681659,-0.455000728,0.083090566
3,1.814206362,-11.16655636,-0.353144765,-1.304681659,-0.455000728,0.083090566
3,1.814206362,-11.16655636,-0.353144765,-1.304681659,-0.455000728,0.083090566
3,1.63703537,-10.0460701,-1.090558887,-0.85713774,-1.333177447,-0.475640208
3,-1.063624144,-6.047753334,3.649960518,-0.85713774,-1.333177447,-0.475640208
3,-1.063624144,-6.047753334,3.649960518,-0.85713774,-1.333177447,-0.475640208
3,-1.063624144,-6.047753334,3.649960518,-0.85713774,-1.333177447,-0.475640208
3,-1.063624144,-6.047753334,3.649960518,-0.85713774,-1.333177447,-0.475640208
3,-1.063624144,-6.047753334,3.649960518,-0.85713774,-1.333177447,-0.475640208
3,-1.063624144,-6.047753334,3.649960518,-0.85713774,-1.333177447,-0.475640208
3,0.234033212,-8.518569946,-0.152031809,-0.85713774,-1.333177447,-0.475640208
3,-2.361281395,-4.802768707,0.183156431,0.590289235,0.605069757,0.041944757
3,-2.361281395,-4.802768707,0.183156431,0.590289235,0.605069757,0.041944757
3,-2.361281395,-4.802768707,0.183156431,0.590289235,0.605069757,0.041944757
3,-2.361281395,-4.802768707,0.183156431,0.590289235,0.605069757,0.041944757
3,-3.362057686,-4.003105164,0.226252064,0.590289235,0.605069757,0.041944757
3,-3.151367903,-3.658340216,-0.362721562,0.590289235,0.605069757,0.041944757
3,-0.824203908,-4.568136692,-1.655590534,0.590289235,0.605069757,0.041944757
3,-5.617395878,-14.83926201,-1.497573137,1.269261599,-0.560461819,0.377635956
3,-5.617395878,-14.83926201,-1.497573137,1.269261599,-0.560461819,0.377635956
3,-5.617395878,-14.83926201,-1.497573137,1.269261599,-0.560461819,0.377635956
3,-5.617395878,-14.83926201,-1.497573137,1.269261599,-0.560461819,0.377635956
3,-5.617395878,-14.83926201,-1.497573137,1.269261599,-0.560461819,0.377635956
3,-5.617395878,-14.83926201,-1.497573137,1.269261599,-0.560461819,0.377635956
3,-5.617395878,-14.83926201,-1.497573137,1.269261599,-0.560461819,0.377635956
3,-1.633444071,-4.711789131,3.27167654,1.269261599,-0.560461819,0.377635956
3,-1.949478745,-3.064578056,2.735375404,1.269261599,-0.560461819,0.377635956
3,-2.093130827,-7.886500359,2.534262419,1.269261599,-0.560461819,0.377635956
3,1.139041424,-7.896077156,-2.148796082,0.010120004,-0.029028434,0.291216433
3,1.139041424,-7.896077156,-2.148796082,0.010120004,-0.029028434,0.291216433
3,1.139041424,-7.896077156,-2.148796082,0.010120004,-0.029028434,0.291216433
3,1.139041424,-7.896077156,-2.148796082,0.010120004,-0.029028434,0.291216433
3,1.139041424,-7.896077156,-2.148796082,0.010120004,-0.029028434,0.291216433
3,1.139041424,-7.896077156,-2.148796082,0.010120004,-0.029028434,0.291216433
3,1.139041424,-7.896077156,-2.148796082,0.010120004,-0.029028434,0.291216433
3,-0.254383922,-9.165003777,1.863885999,0.010120004,-0.029028434,0.291216433
3,-0.78110832,-8.714894295,1.739387512,0.010120004,-0.029028434,0.291216433
3,1.756745458,-11.27190113,0.863109708,0.010120004,-0.029028434,0.291216433
3,1.756745458,-11.27190113,0.863109708,0.010120004,-0.029028434,0.291216433
3,1.756745458,-11.27190113,0.863109708,0.010120004,-0.029028434,0.291216433
3,1.756745458,-11.27190113,0.863109708,0.010120004,-0.029028434,0.291216433
3,1.756745458,-11.27190113,0.863109708,0.010120004,-0.029028434,0.291216433
3,1.756745458,-11.27190113,0.863109708,0.010120004,-0.029028434,0.291216433
3,3.044826031,-13.63737297,2.175132275,-1.666471839,0.498277068,-0.773381412
3,-3.596689463,-12.07635307,3.740940094,-1.666471839,0.498277068,-0.773381412
3,-3.596689463,-12.07635307,3.740940094,-1.666471839,0.498277068,-0.773381412
3,-3.596689463,-12.07635307,3.740940094,-1.666471839,0.498277068,-0.773381412
3,-3.596689463,-12.07635307,3.740940094,-1.666471839,0.498277068,-0.773381412
3,-3.596689463,-12.07635307,3.740940094,-1.666471839,0.498277068,-0.773381412
3,-3.596689463,-12.07635307,3.740940094,-1.666471839,0.498277068,-0.773381412
3,-1.513733983,-9.576807022,-0.894234359,-1.666471839,0.498277068,-0.773381412
3,1.009754539,-8.81066227,-0.022744916,1.018125772,0.047670547,0.172040075
3,1.009754539,-8.81066227,-0.022744916,1.018125772,0.047670547,0.172040075
3,1.009754539,-8.81066227,-0.022744916,1.018125772,0.047670547,0.172040075
3,1.009754539,-8.81066227,-0.022744916,1.018125772,0.047670547,0.172040075
3,0.430357754,-8.585607529,0.623689532,1.018125772,0.047670547,0.172040075
3,-3.022081137,-4.711789131,1.11689508,1.018125772,0.047670547,0.172040075
3,4.433463097,-18.68913841,-16.28416252,1.018125772,0.047670547,0.172040075
3,4.433463097,-18.68913841,-16.28416252,1.018125772,0.047670547,0.172040075
3,4.433463097,-18.68913841,-16.28416252,1.018125772,0.047670547,0.172040075
3,4.433463097,-18.68913841,-16.28416252,1.018125772,0.047670547,0.172040075
3,4.433463097,-18.68913841,-16.28416252,1.018125772,0.047670547,0.172040075
3,4.433463097,-18.68913841,-16.28416252,1.018125772,0.047670547,0.172040075
3,4.083909512,-11.11388397,-6.381744862,1.018125772,0.047670547,0.172040075
3,-4.286219597,-9.777919769,-2.15358448,1.369662762,-0.414520711,0.519981802
3,-4.286219597,-9.777919769,-2.15358448,1.369662762,-0.414520711,0.519981802
3,-3.850474834,-3.969586372,1.26533556,1.369662762,-0.414520711,0.519981802
3,-0.469862074,-12.5551939,4.023456097,1.369662762,-0.414520711,0.519981802
3,-0.469862074,-12.5551939,4.023456097,1.369662762,-0.414520711,0.519981802
3,-0.469862074,-12.5551939,4.023456097,1.369662762,-0.414520711,0.519981802
3,-0.469862074,-12.5551939,4.023456097,1.369662762,-0.414520711,0.519981802
3,-0.469862074,-12.5551939,4.023456097,1.369662762,-0.414520711,0.519981802
3,-0.469862074,-12.5551939,4.023456097,1.369662762,-0.414520711,0.519981802
3,0.511760592,-8.729259491,2.021903276,1.369662762,-0.414520711,0.519981802
3,0.353743315,-9.605537415,2.136825085,-0.434361249,-0.018775271,0.228765368
3,0.353743315,-9.605537415,2.136825085,-0.434361249,-0.018775271,0.228765368
3,0.353743315,-9.605537415,2.136825085,-0.434361249,-0.018775271,0.228765368
3,0.353743315,-9.605537415,2.136825085,-0.434361249,-0.018775271,0.228765368
3,0.353743315,-9.605537415,2.136825085,-0.434361249,-0.018775271,0.228765368
3,-0.216076702,-8.307879448,1.926135302,-0.434361249,-0.018775271,0.228765368
3,-0.450708479,-9.562441826,1.514332533,-0.434361249,-0.018775271,0.228765368
3,2.149394512,-11.26232433,2.203862667,-0.434361249,-0.018775271,0.228765368
3,2.149394512,-11.26232433,2.203862667,-0.434361249,-0.018775271,0.228765368
3,2.149394512,-11.26232433,2.203862667,-0.434361249,-0.018775271,0.228765368
3,2.149394512,-11.26232433,2.203862667,-0.434361249,-0.018775271,0.228765368
3,2.149394512,-11.26232433,2.203862667,-0.434361249,-0.018775271,0.228765368
3,2.149394512,-11.26232433,2.203862667,-0.434361249,-0.018775271,0.228765368
3,5.678447723,-14.33169174,-4.791994572,-0.434361249,-0.018775271,0.228765368
3,-1.26473701,-11.64060879,4.195838451,-1.277384281,-0.282428026,-0.50107336
3,-1.26473701,-11.64060879,4.195838451,-1.277384281,-0.282428026,-0.50107336
3,-1.26473701,-11.64060879,4.195838451,-1.277384281,-0.282428026,-0.50107336
3,-3.137002707,-13.94861889,4.061763287,-1.277384281,-0.282428026,-0.50107336
3,-2.744353771,-7.144298077,1.102529883,-1.277384281,-0.282428026,-0.50107336
3,-2.744353771,-7.144298077,1.102529883,-1.277384281,-0.282428026,-0.50107336
3,-2.744353771,-7.144298077,1.102529883,-1.277384281,-0.282428026,-0.50107336
3,-2.744353771,-7.144298077,1.102529883,-1.277384281,-0.282428026,-0.50107336
3,-2.744353771,-7.144298077,1.102529883,-1.277384281,-0.282428026,-0.50107336
3,1.110311031,-7.005434036,-0.59256494,-1.277384281,-0.282428026,-0.50107336
3,-3.060388327,-3.8642416,1.073799491,0.921719372,0.532898128,-0.03781686
3,-3.060388327,-3.8642416,1.073799491,0.921719372,0.532898128,-0.03781686
3,-3.060388327,-3.8642416,1.073799491,0.921719372,0.532898128,-0.03781686
3,-3.060388327,-3.179499865,1.212663174,0.921719372,0.532898128,-0.03781686
3,-2.911947727,-3.184288263,0.55665189,0.921719372,0.532898128,-0.03781686
3,1.862090349,-9.069235802,-5.323507309,0.921719372,0.532898128,-0.03781686
3,1.862090349,-9.069235802,-5.323507309,0.921719372,0.532898128,-0.03781686
3,1.862090349,-9.069235802,-5.323507309,0.921719372,0.532898128,-0.03781686
3,1.862090349,-9.069235802,-5.323507309,0.921719372,0.532898128,-0.03781686
3,1.862090349,-9.069235802,-5.323507309,0.921719372,0.532898128,-0.03781686
3,1.862090349,-9.069235802,-5.323507309,0.921719372,0.532898128,-0.03781686
3,-4.252700806,-13.73314095,0.384269387,0.921719372,0.532898128,-0.03781686
3,-2.145803213,-2.341529369,2.328361034,1.194959521,-0.056458972,0.118910052
3,-2.145803213,-2.341529369,2.328361034,1.194959521,-0.056458972,0.118910052
3,-1.666962981,-3.399766445,2.237381458,1.194959521,-0.056458972,0.118910052
3,-1.666962981,-3.399766445,2.237381458,1.194959521,-0.056458972,0.118910052
3,-0.843357563,-12.72757626,3.338714361,1.194959521,-0.056458972,0.118910052
3,1.024119735,-7.982268333,-1.550245643,1.194959521,-0.056458972,0.118910052
3,1.024119735,-7.982268333,-1.550245643,1.194959521,-0.056458972,0.118910052
3,1.024119735,-7.982268333,-1.550245643,1.194959521,-0.056458972,0.118910052
3,1.024119735,-7.982268333,-1.550245643,1.194959521,-0.056458972,0.118910052
3,1.024119735,-7.982268333,-1.550245643,1.194959521,-0.056458972,0.118910052
3,1.268328309,-8.049305916,-4.499902248,1.194959521,-0.056458972,0.118910052
3,-0.287902743,-10.16099167,-0.539892495,1.194959521,-0.056458972,0.118910052
3,-0.627879381,-10.98459721,-3.786429882,-2.4296,0.085087933,-0.803208768
3,-0.627879381,-10.98459721,-3.786429882,-2.4296,0.085087933,-0.803208768
3,-0.627879381,-10.98459721,-3.786429882,-2.4296,0.085087933,-0.803208768
3,-0.627879381,-10.98459721,-3.786429882,-2.4296,0.085087933,-0.803208768
3,-0.627879381,-10.98459721,-3.786429882,-2.4296,0.085087933,-0.803208768
3,2.077568531,-11.72679996,-1.095347285,-2.4296,0.085087933,-0.803208768
3,1.689707875,-11.05642319,0.398634583,-2.4296,0.085087933,-0.803208768
3,1.057638645,-10.85052204,3.166331768,-2.4296,0.085087933,-0.803208768
3,1.057638645,-10.85052204,3.166331768,-2.4296,0.085087933,-0.803208768
3,1.057638645,-10.85052204,3.166331768,-2.4296,0.085087933,-0.803208768
3,1.057638645,-10.85052204,3.166331768,-2.4296,0.085087933,-0.803208768
3,1.057638645,-10.85052204,3.166331768,-2.4296,0.085087933,-0.803208768
3,-1.939901948,-15.8256731,3.760093689,-2.4296,0.085087933,-0.803208768
3,-3.797802448,-16.9988327,3.434482336,-2.4296,0.085087933,-0.803208768
3,0.032920275,-7.091625214,0.393846184,1.007606268,0.112784788,0.245543271
3,0.032920275,-7.091625214,0.393846184,1.007606268,0.112784788,0.245543271
3,0.032920275,-7.091625214,0.393846184,1.007606268,0.112784788,0.245543271
3,0.032920275,-7.091625214,0.393846184,1.007606268,0.112784788,0.245543271
3,0.032920275,-7.091625214,0.393846184,1.007606268,0.112784788,0.245543271
3,0.076015905,-7.647080421,0.207098454,1.007606268,0.112784788,0.245543271
3,-2.260725021,-5.147533417,0.499191046,1.007606268,0.112784788,0.245543271
3,3.42310977,-14.8727808,-10.05923843,1.007606268,0.112784788,0.245543271
3,3.42310977,-14.8727808,-10.05923843,1.007606268,0.112784788,0.245543271
3,3.42310977,-14.8727808,-10.05923843,1.007606268,0.112784788,0.245543271
3,3.42310977,-14.8727808,-10.05923843,1.007606268,0.112784788,0.245543271
3,3.42310977,-14.8727808,-10.05923843,1.007606268,0.112784788,0.245543271
3,3.42310977,-14.8727808,-10.05923843,1.007606268,0.112784788,0.245543271
3,4.107851505,-10.39562416,-5.989095688,1.007606268,0.112784788,0.245543271
3,-3.390788078,-12.9334774,2.352303267,1.206677437,-0.687095046,0.552206039
3,-3.390788078,-12.9334774,2.352303267,1.206677437,-0.687095046,0.552206039
3,-3.390788078,-12.9334774,2.352303267,1.206677437,-0.687095046,0.552206039
3,-3.697246075,-5.899312973,0.508767843,1.206677437,-0.687095046,0.552206039
3,-1.135450125,-13.70441055,3.338714361,1.206677437,-0.687095046,0.552206039
3,-1.135450125,-13.70441055,3.338714361,1.206677437,-0.687095046,0.552206039
3,-1.135450125,-13.70441055,3.338714361,1.206677437,-0.687095046,0.552206039
3,-1.135450125,-13.70441055,3.338714361,1.206677437,-0.687095046,0.552206039
3,-1.135450125,-13.70441055,3.338714361,1.206677437,-0.687095046,0.552206039
3,-1.135450125,-13.70441055,3.338714361,1.206677437,-0.687095046,0.552206039
3,0.794276416,-9.476250648,1.528697729,1.206677437,-0.687095046,0.552206039
3,0.133476749,-10.35731697,1.567005038,-1.230645776,-0.077897407,0.048469495
3,0.133476749,-10.35731697,1.567005038,-1.230645776,-0.077897407,0.048469495
3,0.133476749,-10.35731697,1.567005038,-1.230645776,-0.077897407,0.048469495
3,0.133476749,-10.35731697,1.567005038,-1.230645776,-0.077897407,0.048469495
3,0.133476749,-10.35731697,1.567005038,-1.230645776,-0.077897407,0.048469495
3,-0.244807124,-8.896853447,1.9309237,-1.230645776,-0.077897407,0.048469495
3,-0.723647475,-9.830592155,1.490390539,-1.230645776,-0.077897407,0.048469495
3,2.958634853,-11.79383755,2.424129248,-1.230645776,-0.077897407,0.048469495
3,2.958634853,-11.79383755,2.424129248,-1.230645776,-0.077897407,0.048469495
3,2.958634853,-11.79383755,2.424129248,-1.230645776,-0.077897407,0.048469495
3,2.958634853,-11.79383755,2.424129248,-1.230645776,-0.077897407,0.048469495
3,2.958634853,-11.79383755,2.424129248,-1.230645776,-0.077897407,0.048469495
3,2.958634853,-11.79383755,2.424129248,-1.230645776,-0.077897407,0.048469495
3,6.415862083,-15.06910515,-6.702567577,-1.230645776,-0.077897407,0.048469495
3,-4.180874825,-14.94939518,4.205415249,-0.16338481,-0.833169341,-0.325571209
3,-4.180874825,-14.94939518,4.205415249,-0.16338481,-0.833169341,-0.325571209
3,-4.180874825,-14.94939518,4.205415249,-0.16338481,-0.833169341,-0.325571209
3,-4.180874825,-14.94939518,4.205415249,-0.16338481,-0.833169341,-0.325571209
3,-4.889558315,-11.9662199,-2.364274263,-0.16338481,-0.833169341,-0.325571209
3,-2.040458441,-6.651092529,3.171120167,-0.16338481,-0.833169341,-0.325571209
3,-1.657386184,-6.129156113,0.609324336,-0.16338481,-0.833169341,-0.325571209
3,-1.657386184,-6.129156113,0.609324336,-0.16338481,-0.833169341,-0.325571209
3,-1.657386184,-6.129156113,0.609324336,-0.16338481,-0.833169341,-0.325571209
3,-1.657386184,-6.129156113,0.609324336,-0.16338481,-0.833169341,-0.325571209
3,-1.657386184,-6.129156113,0.609324336,-0.16338481,-0.833169341,-0.325571209
3,-1.657386184,-6.129156113,0.609324336,-0.16338481,-0.833169341,-0.325571209
3,-3.342904091,-3.696647406,0.949300945,-0.16338481,-0.833169341,-0.325571209
3,3.480570793,-16.53914452,-14.23951435,0.613858163,0.268180132,0.338753849
3,3.480570793,-16.53914452,-14.23951435,0.613858163,0.268180132,0.338753849
3,3.480570793,-16.53914452,-14.23951435,0.613858163,0.268180132,0.338753849
3,7.431003571,-21.76808167,-15.0008707,0.613858163,0.268180132,0.338753849
3,7.431003571,-21.76808167,-15.0008707,0.613858163,0.268180132,0.338753849
3,2.853289843,-8.346187592,-5.108029366,0.613858163,0.268180132,0.338753849
3,-3.539228678,-4.01747036,-1.502361536,0.613858163,0.268180132,0.338753849
3,-3.539228678,-4.01747036,-1.502361536,0.613858163,0.268180132,0.338753849
3,-3.539228678,-4.01747036,-1.502361536,0.613858163,0.268180132,0.338753849
3,-3.539228678,-4.01747036,-1.502361536,0.613858163,0.268180132,0.338753849
3,-3.539228678,-4.01747036,-1.502361536,0.613858163,0.268180132,0.338753849
3,-3.539228678,-4.01747036,-1.502361536,0.613858163,0.268180132,0.338753849
3,-1.848922253,-6.148310184,2.893392801,0.613858163,0.268180132,0.338753849
3,1.249174714,-8.834604263,-0.477643251,0.574576557,0.579769731,0.356730163
3,1.249174714,-8.834604263,-0.477643251,0.574576557,0.579769731,0.356730163
3,1.249174714,-8.834604263,-0.477643251,0.574576557,0.579769731,0.356730163
3,1.249174714,-8.834604263,-0.477643251,0.574576557,0.579769731,0.356730163
3,0.559644639,-7.580042362,-3.183091164,0.574576557,0.579769731,0.356730163
3,-0.302267969,-10.19929886,1.054645896,0.574576557,0.579769731,0.356730163
3,-1.547252893,-11.90875912,-2.948459387,0.574576557,0.579769731,0.356730163
3,-1.547252893,-11.90875912,-2.948459387,0.574576557,0.579769731,0.356730163
3,-1.547252893,-11.90875912,-2.948459387,0.574576557,0.579769731,0.356730163
3,-1.547252893,-11.90875912,-2.948459387,0.574576557,0.579769731,0.356730163
3,-1.547252893,-11.90875912,-2.948459387,0.574576557,0.579769731,0.356730163
3,-1.547252893,-11.90875912,-2.948459387,0.574576557,0.579769731,0.356730163
3,1.196502328,-11.17613316,-2.388216257,0.574576557,0.579769731,0.356730163
3,4.361637115,-13.14416695,-3.508702517,-1.961017251,0.003595265,-0.82704407
3,4.361637115,-13.14416695,-3.508702517,-1.961017251,0.003595265,-0.82704407
3,3.629011154,-11.44907284,-4.021061897,-1.961017251,0.003595265,-0.82704407
3,-2.82575655,-14.43224812,3.501519918,-1.961017251,0.003595265,-0.82704407
3,-2.82575655,-14.43224812,3.501519918,-1.961017251,0.003595265,-0.82704407
3,-2.82575655,-14.43224812,3.501519918,-1.961017251,0.003595265,-0.82704407
3,-2.82575655,-14.43224812,3.501519918,-1.961017251,0.003595265,-0.82704407
3,-2.82575655,-14.43224812,3.501519918,-1.961017251,0.003595265,-0.82704407
3,-3.098695517,-10.22802925,-1.483207941,-1.961017251,0.003595265,-0.82704407
3,0.861314058,-7.99663353,-1.171961784,0.976713598,0.518916547,0.112385318
3,0.861314058,-7.99663353,-1.171961784,0.976713598,0.518916547,0.112385318
3,0.861314058,-7.99663353,-1.171961784,0.976713598,0.518916547,0.112385318
3,0.861314058,-7.99663353,-1.171961784,0.976713598,0.518916547,0.112385318
3,0.861314058,-7.99663353,-1.171961784,0.976713598,0.518916547,0.112385318
3,-1.882441044,-6.852205276,0.441730201,0.976713598,0.518916547,0.112385318
3,-3.476979494,-5.406107426,0.312443316,0.976713598,0.518916547,0.112385318
3,-3.64457345,-4.745307922,0.077811554,0.976713598,0.518916547,0.112385318
3,3.356072187,-10.28070164,-6.353013992,1.165531635,-0.180828497,0.537159204
3,3.356072187,-10.28070164,-6.353013992,1.165531635,-0.180828497,0.537159204
3,3.356072187,-10.28070164,-6.353013992,1.165531635,-0.180828497,0.537159204
3,3.356072187,-10.28070164,-6.353013992,1.165531635,-0.180828497,0.537159204
3,3.356072187,-10.28070164,-6.353013992,1.165531635,-0.180828497,0.537159204
3,3.356072187,-10.28070164,-6.353013992,1.165531635,-0.180828497,0.537159204
3,3.356072187,-10.28070164,-6.353013992,1.165531635,-0.180828497,0.537159204
3,3.356072187,-10.28070164,-6.353013992,1.165531635,-0.180828497,0.537159204
3,-3.256712914,-13.93425369,-0.037110128,1.165531635,-0.180828497,0.537159204
3,-1.437119603,-11.85608673,2.764105797,1.165531635,-0.180828497,0.537159204
3,-1.437119603,-11.85608673,2.764105797,1.165531635,-0.180828497,0.537159204
3,-1.437119603,-11.85608673,2.764105797,1.165531635,-0.180828497,0.537159204
3,-1.437119603,-11.85608673,2.764105797,1.165531635,-0.180828497,0.537159204
3,-1.437119603,-11.85608673,2.764105797,1.165531635,-0.180828497,0.537159204
3,-1.437119603,-11.85608673,2.764105797,1.165531635,-0.180828497,0.537159204
3,-0.053270988,-10.79784966,3.175908566,1.165531635,-0.180828497,0.537159204
3,0.899621308,-8.724471092,-0.870292306,0.690557182,0.403601766,0.398275435
3,0.899621308,-8.724471092,-0.870292306,0.690557182,0.403601766,0.398275435
3,0.899621308,-8.724471092,-0.870292306,0.690557182,0.403601766,0.398275435
3,0.396838933,-9.466673851,1.52390933,0.690557182,0.403601766,0.398275435
3,0.037708677,-9.595960617,2.074575663,0.690557182,0.403601766,0.398275435
3,-0.982221246,-10.95586681,-1.938106298,0.690557182,0.403601766,0.398275435
3,-0.982221246,-10.95586681,-1.938106298,0.690557182,0.403601766,0.398275435
3,-0.982221246,-10.95586681,-1.938106298,0.690557182,0.403601766,0.398275435
3,-0.982221246,-10.95586681,-1.938106298,0.690557182,0.403601766,0.398275435
3,-0.982221246,-10.95586681,-1.938106298,0.690557182,0.403601766,0.398275435
3,-0.982221246,-10.95586681,-1.938106298,0.690557182,0.403601766,0.398275435
3,1.062427044,-11.13303757,0.800860465,-2.360491037,0.375904918,-0.679371893
3,-2.184110403,-9.141061783,-1.090558887,-2.360491037,0.375904918,-0.679371893
3,-2.184110403,-9.141061783,-1.090558887,-2.360491037,0.375904918,-0.679371893
3,-2.184110403,-9.141061783,-1.090558887,-2.360491037,0.375904918,-0.679371893
3,-2.184110403,-9.141061783,-1.090558887,-2.360491037,0.375904918,-0.679371893
3,-2.184110403,-9.141061783,-1.090558887,-2.360491037,0.375904918,-0.679371893
3,-2.184110403,-9.141061783,-1.090558887,-2.360491037,0.375904918,-0.679371893
3,-2.131438017,-10.42914295,3.784035683,-2.360491037,0.375904918,-0.679371893
3,-2.667739153,-8.379706383,2.328361034,0.386557549,-0.602007091,0.006657898
3,-2.667739153,-8.379706383,2.328361034,0.386557549,-0.602007091,0.006657898
3,-2.667739153,-8.379706383,2.328361034,0.386557549,-0.602007091,0.006657898
3,-0.958279252,-7.656657219,2.902969599,0.386557549,-0.602007091,0.006657898
3,-0.958279252,-7.656657219,2.902969599,0.386557549,-0.602007091,0.006657898
3,-0.958279252,-7.656657219,2.902969599,0.386557549,-0.602007091,0.006657898
3,0.923563302,-8.920795441,-0.338779539,0.386557549,-0.602007091,0.006657898
3,-3.012504339,-3.888183594,-0.271741897,0.386557549,-0.602007091,0.006657898
3,-3.012504339,-3.888183594,-0.271741897,0.386557549,-0.602007091,0.006657898
3,-3.012504339,-3.888183594,-0.271741897,0.386557549,-0.602007091,0.006657898
3,-3.012504339,-3.888183594,-0.271741897,0.386557549,-0.602007091,0.006657898
3,-3.012504339,-3.888183594,-0.271741897,0.386557549,-0.602007091,0.006657898
3,-3.012504339,-3.888183594,-0.271741897,0.386557549,-0.602007091,0.006657898
3,1.93391645,-9.35654068,-4.87339735,0.798947752,-0.223039567,0.388821214
3,-2.897582531,-5.597643375,-0.448912829,0.798947752,-0.223039567,0.388821214
3,-2.897582531,-5.597643375,-0.448912829,0.798947752,-0.223039567,0.388821214
3,-2.897582531,-5.597643375,-0.448912829,0.798947752,-0.223039567,0.388821214
3,-2.897582531,-5.597643375,-0.448912829,0.798947752,-0.223039567,0.388821214
3,-2.557605982,-3.79241538,2.649184227,0.798947752,-0.223039567,0.388821214
3,0.387262136,-9.658209801,2.926911592,0.64448452,0.629703999,0.3531349
3,0.387262136,-9.658209801,2.926911592,0.64448452,0.629703999,0.3531349
3,0.387262136,-9.658209801,2.926911592,0.64448452,0.629703999,0.3531349
3,0.799064815,-8.781931877,0.322020143,0.64448452,0.629703999,0.3531349
3,0.799064815,-8.781931877,0.322020143,0.64448452,0.629703999,0.3531349
3,-0.172981068,-7.7284832,-2.144007683,0.64448452,0.629703999,0.3531349
3,-0.364517212,-8.834604263,1.696291924,0.64448452,0.629703999,0.3531349
3,-0.364517212,-8.834604263,1.696291924,0.64448452,0.629703999,0.3531349
3,-0.364517212,-8.834604263,1.696291924,0.64448452,0.629703999,0.3531349
3,-0.364517212,-8.834604263,1.696291924,0.64448452,0.629703999,0.3531349
3,-0.364517212,-8.834604263,1.696291924,0.64448452,0.629703999,0.3531349
3,-0.809838712,-9.773131371,1.255758762,0.64448452,0.629703999,0.3531349
3,-0.292691171,-11.42034245,-2.929305792,0.64448452,0.629703999,0.3531349
3,3.767874956,-13.88636971,-2.59890604,-1.461674929,0.259258538,-0.85380882
3,3.767874956,-13.88636971,-2.59890604,-1.461674929,0.259258538,-0.85380882
3,3.767874956,-13.88636971,-2.59890604,-1.461674929,0.259258538,-0.85380882
3,3.767874956,-13.88636971,-2.59890604,-1.461674929,0.259258538,-0.85380882
3,3.767874956,-13.88636971,-2.59890604,-1.461674929,0.259258538,-0.85380882
3,0.933140099,-9.720458984,-1.37786305,-1.461674929,0.259258538,-0.85380882
3,-0.996586442,-9.514557838,0.302866518,-1.461674929,0.259258538,-0.85380882
3,-0.982221246,-11.0133276,1.940500498,-1.461674929,0.259258538,-0.85380882
3,1.148618221,-6.445190907,-0.01316811,1.051015735,0.353534371,0.158191651
3,1.148618221,-6.445190907,-0.01316811,1.051015735,0.353534371,0.158191651
3,1.148618221,-6.445190907,-0.01316811,1.051015735,0.353534371,0.158191651
3,1.148618221,-6.445190907,-0.01316811,1.051015735,0.353534371,0.158191651
3,1.148618221,-6.445190907,-0.01316811,1.051015735,0.353534371,0.158191651
3,1.148618221,-6.445190907,-0.01316811,1.051015735,0.353534371,0.158191651
3,1.148618221,-6.445190907,-0.01316811,1.051015735,0.353534371,0.158191651
3,0.281917244,-7.642292023,-0.18555063,1.051015735,0.353534371,0.158191651
3,-1.044470549,-6.732495308,0.159214407,1.051015735,0.353534371,0.158191651
3,-2.897582531,-4.769249916,0.360327363,1.051015735,0.353534371,0.158191651
3,8.268974304,-18.31085396,-10.72003841,1.051015735,0.353534371,0.158191651
3,8.268974304,-18.31085396,-10.72003841,1.051015735,0.353534371,0.158191651
3,8.268974304,-18.31085396,-10.72003841,1.051015735,0.353534371,0.158191651
3,8.268974304,-18.31085396,-10.72003841,1.051015735,0.353534371,0.158191651
3,8.268974304,-18.31085396,-10.72003841,1.051015735,0.353534371,0.158191651
3,8.268974304,-18.31085396,-10.72003841,1.051015735,0.353534371,0.158191651
3,0.679354727,-11.05642319,-4.08809948,1.330381155,-0.610529244,0.720917165
3,-3.098695517,-3.476380825,2.098517895,1.330381155,-0.610529244,0.720917165
3,-3.098695517,-3.476380825,2.098517895,1.330381155,-0.610529244,0.720917165
3,-3.098695517,-3.476380825,2.098517895,1.330381155,-0.610529244,0.720917165
3,-3.098695517,-3.476380825,2.098517895,1.330381155,-0.610529244,0.720917165
3,-3.098695517,-3.476380825,2.098517895,1.330381155,-0.610529244,0.720917165
3,-3.098695517,-3.476380825,2.098517895,1.330381155,-0.610529244,0.720917165
3,-2.457049608,-13.58948898,2.519897223,1.330381155,-0.610529244,0.720917165
3,2.020107746,-7.991845131,-3.839102507,0.597346604,0.370578587,0.36591807
3,2.020107746,-7.991845131,-3.839102507,0.597346604,0.370578587,0.36591807
3,2.020107746,-7.991845131,-3.839102507,0.597346604,0.370578587,0.36591807
3,2.465429306,-8.063671112,-7.090428352,0.597346604,0.370578587,0.36591807
3,2.465429306,-8.063671112,-7.090428352,0.597346604,0.370578587,0.36591807
3,2.465429306,-8.063671112,-7.090428352,0.597346604,0.370578587,0.36591807
3,0.827795267,-10.84573364,0.70509243,0.597346604,0.370578587,0.36591807
3,-1.058835745,-11.32457447,1.169567585,0.597346604,0.370578587,0.36591807
3,-1.058835745,-11.32457447,1.169567585,0.597346604,0.370578587,0.36591807
3,-1.058835745,-11.32457447,1.169567585,0.597346604,0.370578587,0.36591807
3,-1.058835745,-11.32457447,1.169567585,0.597346604,0.370578587,0.36591807
3,-1.058835745,-11.32457447,1.169567585,0.597346604,0.370578587,0.36591807
3,-0.436343253,-11.71722317,-4.432864666,0.597346604,0.370578587,0.36591807
3,3.542819977,-13.62300777,-1.464054346,-1.251152158,0.429168075,-0.840759337
3,3.542819977,-13.62300777,-1.464054346,-1.251152158,0.429168075,-0.840759337
3,3.542819977,-13.62300777,-1.464054346,-1.251152158,0.429168075,-0.840759337
3,3.542819977,-13.62300777,-1.464054346,-1.251152158,0.429168075,-0.840759337
3,3.542819977,-13.62300777,-1.464054346,-1.251152158,0.429168075,-0.840759337
3,-1.470638394,-9.653421402,-1.837549806,-1.251152158,0.429168075,-0.840759337
3,-0.915183604,-10.50575733,2.017114878,-1.251152158,0.429168075,-0.840759337
3,-1.293467522,-11.54962921,3.975571871,-1.251152158,0.429168075,-0.840759337
3,-0.153827459,-8.101978302,-0.980425596,0.992426217,0.351670146,0.255929589
3,-0.153827459,-8.101978302,-0.980425596,0.992426217,0.351670146,0.255929589
3,-0.153827459,-8.101978302,-0.980425596,0.992426217,0.351670146,0.255929589
3,-0.153827459,-8.101978302,-0.980425596,0.992426217,0.351670146,0.255929589
3,-0.153827459,-8.101978302,-0.980425596,0.992426217,0.351670146,0.255929589
3,-0.153827459,-8.101978302,-0.980425596,0.992426217,0.351670146,0.255929589
3,-0.153827459,-8.101978302,-0.980425596,0.992426217,0.351670146,0.255929589
3,-1.432331204,-6.890512466,0.652419984,0.992426217,0.351670146,0.255929589
3,-1.96863234,-5.468356609,0.575805485,0.992426217,0.351670146,0.255929589
3,-2.571971178,-4.352658749,0.762553215,0.992426217,0.351670146,0.255929589
3,3.504512787,-12.19606304,-6.080075264,0.992426217,0.351670146,0.255929589
3,3.504512787,-12.19606304,-6.080075264,0.992426217,0.351670146,0.255929589
3,3.504512787,-12.19606304,-6.080075264,0.992426217,0.351670146,0.255929589
3,3.504512787,-12.19606304,-6.080075264,0.992426217,0.351670146,0.255929589
3,3.504512787,-12.19606304,-6.080075264,0.992426217,0.351670146,0.255929589
3,3.504512787,-12.19606304,-6.080075264,0.992426217,0.351670146,0.255929589
3,3.504512787,-12.19606304,-6.080075264,0.992426217,0.351670146,0.255929589
3,-4.401141167,-18.51675606,-0.209492654,1.156077385,-0.749013484,0.694951355
3,-2.624643564,-11.93270111,2.586935043,1.156077385,-0.749013484,0.694951355
3,-2.624643564,-11.93270111,2.586935043,1.156077385,-0.749013484,0.694951355
3,-2.624643564,-11.93270111,2.586935043,1.156077385,-0.749013484,0.694951355
3,-2.624643564,-11.93270111,2.586935043,1.156077385,-0.749013484,0.694951355
3,-2.624643564,-11.93270111,2.586935043,1.156077385,-0.749013484,0.694951355
3,-2.624643564,-11.93270111,2.586935043,1.156077385,-0.749013484,0.694951355
3,-0.637456179,-11.93270111,3.75530529,1.156077385,-0.749013484,0.694951355
3,1.057638645,-8.595184326,-3.949235678,0.373508066,0.184823245,0.349939108
3,1.057638645,-8.595184326,-3.949235678,0.373508066,0.184823245,0.349939108
3,1.057638645,-8.595184326,-3.949235678,0.373508066,0.184823245,0.349939108
3,1.038484931,-10.23760605,-0.190339029,0.373508066,0.184823245,0.349939108
3,1.038484931,-10.23760605,-0.190339029,0.373508066,0.184823245,0.349939108
3,1.038484931,-10.23760605,-0.190339029,0.373508066,0.184823245,0.349939108
3,0.344166487,-9.643844604,1.868674397,0.373508066,0.184823245,0.349939108
3,0.095169514,-11.55441761,-4.097676277,0.373508066,0.184823245,0.349939108
3,0.095169514,-11.55441761,-4.097676277,0.373508066,0.184823245,0.349939108
3,0.095169514,-11.55441761,-4.097676277,0.373508066,0.184823245,0.349939108
3,0.095169514,-11.55441761,-4.097676277,0.373508066,0.184823245,0.349939108
3,0.095169514,-11.55441761,-4.097676277,0.373508066,0.184823245,0.349939108
3,2.1972785,-11.04684639,1.753752708,0.373508066,0.184823245,0.349939108
3,0.377685308,-11.18570995,-1.966836691,-1.674461246,0.502538145,-0.795352459
3,0.377685308,-11.18570995,-1.966836691,-1.674461246,0.502538145,-0.795352459
3,-1.437119603,-10.88404083,-0.812831461,-1.674461246,0.502538145,-0.795352459
3,-5.421071053,-13.60385418,0.724246025,-1.674461246,0.502538145,-0.795352459
3,-5.421071053,-13.60385418,0.724246025,-1.674461246,0.502538145,-0.795352459
3,-5.421071053,-13.60385418,0.724246025,-1.674461246,0.502538145,-0.795352459
3,-5.421071053,-13.60385418,0.724246025,-1.674461246,0.502538145,-0.795352459
3,-5.421071053,-13.60385418,0.724246025,-1.674461246,0.502538145,-0.795352459
3,-5.421071053,-13.60385418,0.724246025,-1.674461246,0.502538145,-0.795352459
3,-1.312621117,-8.250418663,0.341173738,-1.674461246,0.502538145,-0.795352459
3,0.85652566,-8.791508675,0.16879122,0.8315714,-0.038083173,0.166181132
3,0.85652566,-8.791508675,0.16879122,0.8315714,-0.038083173,0.166181132
3,-0.038905777,-7.335834026,0.518344641,0.8315714,-0.038083173,0.166181132
3,-0.038905777,-7.335834026,0.518344641,0.8315714,-0.038083173,0.166181132
3,-2.495356798,-4.893748283,0.82001406,0.8315714,-0.038083173,0.166181132
3,3.490147591,-14.38436413,-11.82615948,0.8315714,-0.038083173,0.166181132
3,3.490147591,-14.38436413,-11.82615948,0.8315714,-0.038083173,0.166181132
3,3.490147591,-14.38436413,-11.82615948,0.8315714,-0.038083173,0.166181132
3,3.490147591,-14.38436413,-11.82615948,0.8315714,-0.038083173,0.166181132
3,3.490147591,-14.38436413,-11.82615948,0.8315714,-0.038083173,0.166181132
3,3.490147591,-14.38436413,-11.82615948,0.8315714,-0.038083173,0.166181132
3,3.887584925,-10.60152531,-6.252457619,1.040762544,-0.189217448,0.537824988
3,-2.461838007,-5.243301868,1.332373261,1.040762544,-0.189217448,0.537824988
3,-2.461838007,-5.243301868,1.332373261,1.040762544,-0.189217448,0.537824988
3,-2.461838007,-5.243301868,1.332373261,1.040762544,-0.189217448,0.537824988
3,-2.461838007,-5.243301868,1.332373261,1.040762544,-0.189217448,0.537824988
3,-2.461838007,-5.243301868,1.332373261,1.040762544,-0.189217448,0.537824988
3,-2.461838007,-5.243301868,1.332373261,1.040762544,-0.189217448,0.537824988
3,-2.773084164,-9.840168953,1.983596087,1.040762544,-0.189217448,0.537824988
3,1.536478996,-9.643844604,0.087388359,0.714791894,0.440486521,0.252334327
3,1.536478996,-9.643844604,0.087388359,0.714791894,0.440486521,0.252334327
3,1.536478996,-9.643844604,0.087388359,0.714791894,0.440486521,0.252334327
3,1.359308004,-8.360552788,-1.914164305,0.714791894,0.440486521,0.252334327
3,1.359308004,-8.360552788,-1.914164305,0.714791894,0.440486521,0.252334327
3,1.359308004,-8.360552788,-1.914164305,0.714791894,0.440486521,0.252334327
3,0.636259079,-9.126696587,-0.48243165,0.714791894,0.440486521,0.252334327
3,-0.546476543,-9.825803757,1.365892053,0.714791894,0.440486521,0.252334327
3,-0.546476543,-9.825803757,1.365892053,0.714791894,0.440486521,0.252334327
3,-0.546476543,-9.825803757,1.365892053,0.714791894,0.440486521,0.252334327
3,-0.546476543,-9.825803757,1.365892053,0.714791894,0.440486521,0.252334327
3,-0.546476543,-9.825803757,1.365892053,0.714791894,0.440486521,0.252334327
3,-1.441908002,-10.66377449,-0.525527298,0.714791894,0.440486521,0.252334327
3,2.829347849,-11.60709,0.015562311,-2.330397367,0.495480746,-0.83197093
3,2.829347849,-11.60709,0.015562311,-2.330397367,0.495480746,-0.83197093
3,2.829347849,-11.60709,0.015562311,-2.330397367,0.495480746,-0.83197093
3,-0.790685117,-10.51533413,-2.354697466,-2.330397367,0.495480746,-0.83197093
3,-0.790685117,-10.51533413,-2.354697466,-2.330397367,0.495480746,-0.83197093
3,-0.790685117,-10.51533413,-2.354697466,-2.330397367,0.495480746,-0.83197093
3,-0.790685117,-10.51533413,-2.354697466,-2.330397367,0.495480746,-0.83197093
3,-0.790685117,-10.51533413,-2.354697466,-2.330397367,0.495480746,-0.83197093
3,0.114323132,-11.79383755,3.822343111,-2.330397367,0.495480746,-0.83197093
3,-1.279102206,-9.524134636,-2.388216257,0.351403832,-0.20293273,0.084821619
3,-1.279102206,-9.524134636,-2.388216257,0.351403832,-0.20293273,0.084821619
3,-1.279102206,-9.524134636,-2.388216257,0.351403832,-0.20293273,0.084821619
3,-1.279102206,-9.524134636,-2.388216257,0.351403832,-0.20293273,0.084821619
3,-1.580771685,-6.751648903,4.899733543,0.351403832,-0.20293273,0.084821619
3,-0.067636199,-6.411672115,0.571017087,0.351403832,-0.20293273,0.084821619
3,0.641047478,-6.976703644,-2.41694665,0.351403832,-0.20293273,0.084821619
3,-3.132214308,-5.324704647,-0.362721562,0.660729766,0.218645364,0.250070632
3,-3.132214308,-5.324704647,-0.362721562,0.660729766,0.218645364,0.250070632
3,-3.132214308,-5.324704647,-0.362721562,0.660729766,0.218645364,0.250070632
3,-3.132214308,-5.324704647,-0.362721562,0.660729766,0.218645364,0.250070632
3,-3.132214308,-5.324704647,-0.362721562,0.660729766,0.218645364,0.250070632
3,-3.132214308,-5.324704647,-0.362721562,0.660729766,0.218645364,0.250070632
3,-3.132214308,-5.324704647,-0.362721562,0.660729766,0.218645364,0.250070632
3,4.82611227,-13.26387787,-9.173383713,0.660729766,0.218645364,0.250070632
3,7.201159954,-15.52879238,-7.071274757,0.660729766,0.218645364,0.250070632
3,-2.351704597,-12.98136139,2.788047791,0.660729766,0.218645364,0.250070632
3,-2.351704597,-12.98136139,2.788047791,0.660729766,0.218645364,0.250070632
3,-2.351704597,-12.98136139,2.788047791,0.660729766,0.218645364,0.250070632
3,-2.351704597,-12.98136139,2.788047791,0.660729766,0.218645364,0.250070632
3,-2.351704597,-12.98136139,2.788047791,0.660729766,0.218645364,0.250070632
3,-2.351704597,-12.98136139,2.788047791,0.660729766,0.218645364,0.250070632
3,-4.252700806,-6.4691329,-1.478419542,0.660729766,0.218645364,0.250070632
3,1.206079125,-10.29506683,1.873462796,0.839560926,0.235822737,0.201867461
3,1.206079125,-10.29506683,1.873462796,0.839560926,0.235822737,0.201867461
3,1.206079125,-10.29506683,1.873462796,0.839560926,0.235822737,0.201867461
3,1.206079125,-10.29506683,1.873462796,0.839560926,0.235822737,0.201867461
3,1.206079125,-10.29506683,1.873462796,0.839560926,0.235822737,0.201867461
3,0.133476749,-8.212111473,-3.149572372,0.839560926,0.235822737,0.201867461
3,-0.412401229,-8.35097599,0.834379315,0.839560926,0.235822737,0.201867461
3,-0.532111347,-8.829815865,0.274136096,0.839560926,0.235822737,0.201867461
3,-0.532111347,-8.829815865,0.274136096,0.839560926,0.235822737,0.201867461
3,-0.532111347,-8.829815865,0.274136096,0.839560926,0.235822737,0.201867461
3,-0.532111347,-8.829815865,0.274136096,0.839560926,0.235822737,0.201867461
3,-0.532111347,-8.829815865,0.274136096,0.839560926,0.235822737,0.201867461
3,-0.89124161,-9.39484787,0.590170741,0.839560926,0.235822737,0.201867461
3,0.550067842,-11.76031876,1.069011092,-2.185388327,0.381364375,-0.746217191
3,0.550067842,-11.76031876,1.069011092,-2.185388327,0.381364375,-0.746217191
3,0.550067842,-11.76031876,1.069011092,-2.185388327,0.381364375,-0.746217191
3,0.550067842,-11.76031876,1.069011092,-2.185388327,0.381364375,-0.746217191
3,2.312200308,-13.19205093,-0.022744916,-2.185388327,0.381364375,-0.746217191
3,3.71520257,-13.99171448,-1.397016644,-2.185388327,0.381364375,-0.746217191
3,-3.304596901,-13.40752983,3.156754971,-2.185388327,0.381364375,-0.746217191
3,-3.304596901,-13.40752983,3.156754971,-2.185388327,0.381364375,-0.746217191
3,-3.304596901,-13.40752983,3.156754971,-2.185388327,0.381364375,-0.746217191
3,-3.304596901,-13.40752983,3.156754971,-2.185388327,0.381364375,-0.746217191
3,-3.304596901,-13.40752983,3.156754971,-2.185388327,0.381364375,-0.746217191
3,-3.304596901,-13.40752983,3.156754971,-2.185388327,0.381364375,-0.746217191
3,-0.450708479,-10.76911926,-0.59256494,-2.185388327,0.381364375,-0.746217191
3,-0.498592496,-8.408436775,0.748188019,0.914928317,-0.061652131,0.175369024
3,-0.498592496,-8.408436775,0.748188019,0.914928317,-0.061652131,0.175369024
3,-0.498592496,-8.408436775,0.748188019,0.914928317,-0.061652131,0.175369024
3,-0.498592496,-8.408436775,0.748188019,0.914928317,-0.061652131,0.175369024
3,-0.498592496,-8.408436775,0.748188019,0.914928317,-0.061652131,0.175369024
3,-0.498592496,-8.408436775,0.748188019,0.914928317,-0.061652131,0.175369024
3,-2.782660961,-6.890512466,0.642843127,0.914928317,-0.061652131,0.175369024
3,-3.840898037,-4.71657753,0.647631586,0.914928317,-0.061652131,0.175369024
3,5.69281292,-14.07311726,-9.470264435,0.914928317,-0.061652131,0.175369024
3,5.69281292,-14.07311726,-9.470264435,0.914928317,-0.061652131,0.175369024
3,5.69281292,-14.07311726,-9.470264435,0.914928317,-0.061652131,0.175369024
3,5.69281292,-14.07311726,-9.470264435,0.914928317,-0.061652131,0.175369024
3,5.69281292,-14.07311726,-9.470264435,0.914928317,-0.061652131,0.175369024
3,6.923432827,-17.95172501,-9.206902504,0.914928317,-0.061652131,0.175369024
3,-2.413953781,-14.51843929,3.42011714,1.34995532,-0.257394314,0.471778631
3,-2.413953781,-14.51843929,3.42011714,1.34995532,-0.257394314,0.471778631
3,-3.596689463,-12.72757626,-3.877409697,1.34995532,-0.257394314,0.471778631
3,-4.525639534,-7.177816868,-1.07619369,1.34995532,-0.257394314,0.471778631
3,0.037708677,-11.71243477,3.118447781,1.34995532,-0.257394314,0.471778631
3,0.037708677,-11.71243477,3.118447781,1.34995532,-0.257394314,0.471778631
3,0.037708677,-11.71243477,3.118447781,1.34995532,-0.257394314,0.471778631
3,0.037708677,-11.71243477,3.118447781,1.34995532,-0.257394314,0.471778631
3,0.037708677,-11.71243477,3.118447781,1.34995532,-0.257394314,0.471778631
3,0.037708677,-11.71243477,3.118447781,1.34995532,-0.257394314,0.471778631
3,0.933140099,-8.169015884,-0.741005421,1.34995532,-0.257394314,0.471778631
3,-0.29747957,-10.09874249,2.069787264,0.458196521,0.385092795,0.256195903
3,-0.29747957,-10.09874249,2.069787264,0.458196521,0.385092795,0.256195903
3,-0.010175358,-9.217676163,1.581370234,0.458196521,0.385092795,0.256195903
3,-0.010175358,-9.217676163,1.581370234,0.458196521,0.385092795,0.256195903
3,-0.527322948,-10.27591324,-2.455253839,0.458196521,0.385092795,0.256195903
3,-0.527322948,-10.27591324,-2.455253839,0.458196521,0.385092795,0.256195903
3,-0.527322948,-10.27591324,-2.455253839,0.458196521,0.385092795,0.256195903
3,-0.527322948,-10.27591324,-2.455253839,0.458196521,0.385092795,0.256195903
3,-0.527322948,-10.27591324,-2.455253839,0.458196521,0.385092795,0.256195903
3,0.200514391,-11.29105568,1.811213613,0.458196521,0.385092795,0.256195903
3,1.924339652,-12.14339066,-3.700238705,-1.787112951,0.756470323,-0.781903505
3,1.924339652,-12.14339066,-3.700238705,-1.787112951,0.756470323,-0.781903505
3,1.924339652,-12.14339066,-3.700238705,-1.787112951,0.756470323,-0.781903505
3,0.712873578,-10.52012253,-2.742558002,-1.787112951,0.756470323,-0.781903505
3,0.712873578,-10.52012253,-2.742558002,-1.787112951,0.756470323,-0.781903505
3,-0.694917023,-9.284713745,-2.000355482,-1.787112951,0.756470323,-0.781903505
3,-1.853710651,-14.37957573,-3.178302765,-1.787112951,0.756470323,-0.781903505
3,-1.853710651,-14.37957573,-3.178302765,-1.787112951,0.756470323,-0.781903505
3,-1.853710651,-14.37957573,-3.178302765,-1.787112951,0.756470323,-0.781903505
3,-1.853710651,-14.37957573,-3.178302765,-1.787112951,0.756470323,-0.781903505
3,-1.853710651,-14.37957573,-3.178302765,-1.787112951,0.756470323,-0.781903505
3,-1.106719732,-11.84172153,-3.556586742,-1.787112951,0.756470323,-0.781903505
3,-0.939125597,-7.335834026,3.204638958,-1.787112951,0.756470323,-0.781903505
3,-1.26473701,-5.133168221,0.322020143,0.485493898,-0.080560565,0.041145809
3,-1.26473701,-5.133168221,0.322020143,0.485493898,-0.080560565,0.041145809
3,-1.26473701,-5.133168221,0.322020143,0.485493898,-0.080560565,0.041145809
3,-1.26473701,-5.133168221,0.322020143,0.485493898,-0.080560565,0.041145809
3,-1.26473701,-5.133168221,0.322020143,0.485493898,-0.080560565,0.041145809
3,-2.30382061,-3.260902643,-0.276530296,0.485493898,-0.080560565,0.041145809
3,0.899621308,-7.733271599,-1.981201887,0.485493898,-0.080560565,0.041145809
3,-0.465073675,-7.857769966,2.706645012,0.485493898,-0.080560565,0.041145809
3,-0.465073675,-7.857769966,2.706645012,0.485493898,-0.080560565,0.041145809
3,-0.465073675,-7.857769966,2.706645012,0.485493898,-0.080560565,0.041145809
3,-0.465073675,-7.857769966,2.706645012,0.485493898,-0.080560565,0.041145809
3,-0.465073675,-7.857769966,2.706645012,0.485493898,-0.080560565,0.041145809
3,-0.465073675,-7.857769966,2.706645012,0.485493898,-0.080560565,0.041145809
3,-3.912724018,-16.7929306,3.860650301,0.485493898,-0.080560565,0.041145809
3,-1.619078875,-4.180276394,2.754528999,1.078579426,-0.022370536,0.257527471
3,-1.619078875,-4.180276394,2.754528999,1.078579426,-0.022370536,0.257527471
3,-1.619078875,-4.180276394,2.754528999,1.078579426,-0.022370536,0.257527471
3,-0.915183604,-7.173028469,3.175908566,1.078579426,-0.022370536,0.257527471
3,0.851737261,-9.476250648,0.039504327,1.078579426,-0.022370536,0.257527471
3,0.851737261,-9.476250648,0.039504327,1.078579426,-0.022370536,0.257527471
3,0.851737261,-9.476250648,0.039504327,1.078579426,-0.022370536,0.257527471
3,0.851737261,-9.476250648,0.039504327,1.078579426,-0.022370536,0.257527471
3,0.851737261,-9.476250648,0.039504327,1.078579426,-0.022370536,0.257527471
3,0.339378089,-8.46589756,-0.884657502,1.078579426,-0.022370536,0.257527471
3,-0.383670837,-9.021351814,1.250970364,-1.178314686,-0.195609033,0.020905798
3,-0.383670837,-9.021351814,1.250970364,-1.178314686,-0.195609033,0.020905798
3,-0.383670837,-9.021351814,1.250970364,-1.178314686,-0.195609033,0.020905798
3,-0.431554854,-8.757989883,1.490390539,-1.178314686,-0.195609033,0.020905798
3,-0.431554854,-8.757989883,1.490390539,-1.178314686,-0.195609033,0.020905798
3,-1.508945584,-10.45308495,0.470460624,-1.178314686,-0.195609033,0.020905798
3,2.024896145,-11.48738003,-0.06584055,-1.178314686,-0.195609033,0.020905798
3,2.024896145,-11.48738003,-0.06584055,-1.178314686,-0.195609033,0.020905798
3,2.024896145,-11.48738003,-0.06584055,-1.178314686,-0.195609033,0.020905798
3,2.024896145,-11.48738003,-0.06584055,-1.178314686,-0.195609033,0.020905798
3,2.024896145,-11.48738003,-0.06584055,-1.178314686,-0.195609033,0.020905798
3,2.024896145,-11.48738003,-0.06584055,-1.178314686,-0.195609033,0.020905798
3,2.838924646,-12.08592987,-3.436876535,-1.178314686,-0.195609033,0.020905798
3,-2.998139143,-14.99727917,3.060986757,-0.281762242,-0.846485138,-0.33502543
3,-2.998139143,-14.99727917,3.060986757,-0.281762242,-0.846485138,-0.33502543
3,-2.998139143,-14.99727917,3.060986757,-0.281762242,-0.846485138,-0.33502543
3,-2.998139143,-14.99727917,3.060986757,-0.281762242,-0.846485138,-0.33502543
3,-2.998139143,-14.99727917,3.060986757,-0.281762242,-0.846485138,-0.33502543
3,-3.127425909,-13.61821938,-2.680308819,-0.281762242,-0.846485138,-0.33502543
3,-2.260725021,-6.928819656,2.136825085,-0.281762242,-0.846485138,-0.33502543
3,-1.111508131,-7.139509678,0.489614248,-0.281762242,-0.846485138,-0.33502543
3,-1.111508131,-7.139509678,0.489614248,-0.281762242,-0.846485138,-0.33502543
3,-1.111508131,-7.139509678,0.489614248,-0.281762242,-0.846485138,-0.33502543
3,-1.111508131,-7.139509678,0.489614248,-0.281762242,-0.846485138,-0.33502543
3,-1.111508131,-7.139509678,0.489614248,-0.281762242,-0.846485138,-0.33502543
3,-1.111508131,-7.139509678,0.489614248,-0.281762242,-0.846485138,-0.33502543
3,-3.558382273,-4.726154327,0.618901134,-0.281762242,-0.846485138,-0.33502543
3,5.65450573,-16.8025074,-11.85967827,0.613858163,0.581500769,0.220110103
3,5.65450573,-16.8025074,-11.85967827,0.613858163,0.581500769,0.220110103
3,5.65450573,-16.8025074,-11.85967827,0.613858163,0.581500769,0.220110103
3,8.154052734,-18.56464005,-11.05522633,0.613858163,0.581500769,0.220110103
3,8.154052734,-18.56464005,-11.05522633,0.613858163,0.581500769,0.220110103
3,-3.898358822,-14.8775692,3.209427357,0.613858163,0.581500769,0.220110103
3,-3.898358822,-14.8775692,3.209427357,0.613858163,0.581500769,0.220110103
3,-3.898358822,-14.8775692,3.209427357,0.613858163,0.581500769,0.220110103
3,-3.898358822,-14.8775692,3.209427357,0.613858163,0.581500769,0.220110103
3,-3.898358822,-14.8775692,3.209427357,0.613858163,0.581500769,0.220110103
3,-2.351704597,-11.67891598,-0.032321721,0.613858163,0.581500769,0.220110103
3,-1.844133854,-10.994174,2.965218782,0.842357218,0.382695973,0.142345861
3,-1.844133854,-10.994174,2.965218782,0.842357218,0.382695973,0.142345861
3,-1.844133854,-10.994174,2.965218782,0.842357218,0.382695973,0.142345861
3,-1.183334231,-13.46020222,3.415328741,0.842357218,0.382695973,0.142345861
3,-1.183334231,-13.46020222,3.415328741,0.842357218,0.382695973,0.142345861
3,0.16699557,-9.615114212,2.285265446,0.842357218,0.382695973,0.142345861
3,-0.125097036,-9.883264542,1.935712099,0.842357218,0.382695973,0.142345861
3,-0.125097036,-9.883264542,1.935712099,0.842357218,0.382695973,0.142345861
3,-0.125097036,-9.883264542,1.935712099,0.842357218,0.382695973,0.142345861
3,-0.125097036,-9.883264542,1.935712099,0.842357218,0.382695973,0.142345861
3,-0.125097036,-9.883264542,1.935712099,0.842357218,0.382695973,0.142345861
3,-0.125097036,-9.883264542,1.935712099,0.842357218,0.382695973,0.142345861
3,-0.565630138,-8.384494781,1.255758762,0.842357218,0.382695973,0.142345861
3,-0.024540568,-10.60152531,-1.976413488,-2.227998972,0.505733907,-0.762861907
3,-0.024540568,-10.60152531,-1.976413488,-2.227998972,0.505733907,-0.762861907
3,-0.024540568,-10.60152531,-1.976413488,-2.227998972,0.505733907,-0.762861907
3,-0.024540568,-10.60152531,-1.976413488,-2.227998972,0.505733907,-0.762861907
3,1.929128051,-11.66455078,1.423352957,-2.227998972,0.505733907,-0.762861907
3,2.355295897,-11.79383755,1.327584863,-2.227998972,0.505733907,-0.762861907
3,2.26431632,-12.81376743,0.427365005,-2.227998972,0.505733907,-0.762861907
3,-4.396352768,-13.11543655,3.118447781,0.375239104,-0.382429659,-0.123437427
3,-4.396352768,-13.11543655,3.118447781,0.375239104,-0.382429659,-0.123437427
3,-4.396352768,-13.11543655,3.118447781,0.375239104,-0.382429659,-0.123437427
3,-4.396352768,-13.11543655,3.118447781,0.375239104,-0.382429659,-0.123437427
3,-4.396352768,-13.11543655,3.118447781,0.375239104,-0.382429659,-0.123437427
3,-4.396352768,-13.11543655,3.118447781,0.375239104,-0.382429659,-0.123437427
3,-4.396352768,-13.11543655,3.118447781,0.375239104,-0.382429659,-0.123437427
3,-1.791461468,-10.06522369,-1.727416515,0.375239104,-0.382429659,-0.123437427
3,-1.882441044,-7.680599213,0.925358951,0.375239104,-0.382429659,-0.123437427
3,1.081580639,-7.876923561,-1.966836691,0.375239104,-0.382429659,-0.123437427
3,-3.381211281,-3.782838583,0.791283667,0.514122844,0.917591453,0.058456343
3,-3.381211281,-3.782838583,0.791283667,0.514122844,0.917591453,0.058456343
3,-3.381211281,-3.782838583,0.791283667,0.514122844,0.917591453,0.058456343
3,-3.381211281,-3.782838583,0.791283667,0.514122844,0.917591453,0.058456343
3,-3.381211281,-3.782838583,0.791283667,0.514122844,0.917591453,0.058456343
3,-3.381211281,-3.782838583,0.791283667,0.514122844,0.917591453,0.058456343
3,-3.381211281,-3.782838583,0.791283667,0.514122844,0.917591453,0.058456343
3,3.365648985,-9.988609314,-5.529408932,0.514122844,0.917591453,0.058456343
3,7.095815182,-20.48957825,-11.7208147,0.514122844,0.917591453,0.058456343
3,-1.614290476,-13.84327412,3.400963545,0.514122844,0.917591453,0.058456343
3,-1.614290476,-13.84327412,3.400963545,0.514122844,0.917591453,0.058456343
3,-1.614290476,-13.84327412,3.400963545,0.514122844,0.917591453,0.058456343
3,-1.614290476,-13.84327412,3.400963545,0.514122844,0.917591453,0.058456343
3,-1.614290476,-13.84327412,3.400963545,0.514122844,0.917591453,0.058456343
3,-1.853710651,-8.590395927,2.275688648,0.514122844,0.917591453,0.058456343
3,-1.863287449,-5.31512785,1.959654093,0.514122844,0.917591453,0.058456343
3,-0.125097036,-9.255983353,-1.497573137,0.797616124,0.525574446,0.381897002
3,-0.125097036,-9.255983353,-1.497573137,0.797616124,0.525574446,0.381897002
3,-0.125097036,-9.255983353,-1.497573137,0.797616124,0.525574446,0.381897002
3,-0.125097036,-9.255983353,-1.497573137,0.797616124,0.525574446,0.381897002
3,-0.125097036,-9.255983353,-1.497573137,0.797616124,0.525574446,0.381897002
3,0.454299778,-7.235277653,-1.521515131,0.797616124,0.525574446,0.381897002
3,0.741603971,-8.480262756,1.940500498,0.797616124,0.525574446,0.381897002
3,-1.326986313,-9.859322548,0.077811554,0.797616124,0.525574446,0.381897002
3,-1.326986313,-9.859322548,0.077811554,0.797616124,0.525574446,0.381897002
3,-1.326986313,-9.859322548,0.077811554,0.797616124,0.525574446,0.381897002
3,-1.326986313,-9.859322548,0.077811554,0.797616124,0.525574446,0.381897002
3,-1.326986313,-9.859322548,0.077811554,0.797616124,0.525574446,0.381897002
3,-1.326986313,-9.859322548,0.077811554,0.797616124,0.525574446,0.381897002
3,-1.178545833,-10.46266174,-1.267729759,0.797616124,0.525574446,0.381897002
3,1.775899053,-13.56554699,-0.870292306,-1.708949208,0.626241863,-0.758467734
3,1.775899053,-13.56554699,-0.870292306,-1.708949208,0.626241863,-0.758467734
3,1.775899053,-13.56554699,-0.870292306,-1.708949208,0.626241863,-0.758467734
3,1.775899053,-13.56554699,-0.870292306,-1.708949208,0.626241863,-0.758467734
3,0.248398423,-11.26711273,-3.293224335,-1.708949208,0.626241863,-0.758467734
3,-0.627879381,-10.12268448,-0.539892495,-1.708949208,0.626241863,-0.758467734
3,-0.704493821,-10.41477776,-1.837549806,-1.708949208,0.626241863,-0.758467734
3,-0.704493821,-10.41477776,-1.837549806,-1.708949208,0.626241863,-0.758467734
3,-0.704493821,-10.41477776,-1.837549806,-1.708949208,0.626241863,-0.758467734
3,-0.704493821,-10.41477776,-1.837549806,-1.708949208,0.626241863,-0.758467734
3,-0.704493821,-10.41477776,-1.837549806,-1.708949208,0.626241863,-0.758467734
3,-0.704493821,-10.41477776,-1.837549806,-1.708949208,0.626241863,-0.758467734
3,-2.078765631,-7.862558365,2.37624526,-1.708949208,0.626241863,-0.758467734
3,-0.398036033,-8.054094315,1.097741485,0.651941359,-0.327701718,0.131959528
3,-0.398036033,-8.054094315,1.097741485,0.651941359,-0.327701718,0.131959528
3,-1.020528436,-6.928819656,0.695515573,0.651941359,-0.327701718,0.131959528
3,-2.241571426,-3.476380825,0.599747539,0.651941359,-0.327701718,0.131959528
3,-2.241571426,-3.476380825,0.599747539,0.651941359,-0.327701718,0.131959528
3,-2.241571426,-3.476380825,0.599747539,0.651941359,-0.327701718,0.131959528
3,-2.241571426,-3.476380825,0.599747539,0.651941359,-0.327701718,0.131959528
3,-2.241571426,-3.476380825,0.599747539,0.651941359,-0.327701718,0.131959528
3,4.026448727,-17.13769531,-14.93383312,0.651941359,-0.327701718,0.131959528
3,-3.510498285,-12.38281155,1.586158633,1.055676222,-0.099735305,0.487224966
3,-3.510498285,-12.38281155,1.586158633,1.055676222,-0.099735305,0.487224966
3,-3.510498285,-12.38281155,1.586158633,1.055676222,-0.099735305,0.487224966
3,-3.510498285,-12.38281155,1.586158633,1.055676222,-0.099735305,0.487224966
3,-1.231218219,-8.834604263,1.308431268,1.055676222,-0.099735305,0.487224966
3,-1.762730956,-5.57848978,0.22146365,1.055676222,-0.099735305,0.487224966
3,-3.500921488,-3.691859007,-3.053804159,1.055676222,-0.099735305,0.487224966
3,1.15340662,-8.303091049,-2.7521348,0.579103947,0.570981324,0.402935982
3,1.15340662,-8.303091049,-2.7521348,0.579103947,0.570981324,0.402935982
3,1.15340662,-8.303091049,-2.7521348,0.579103947,0.570981324,0.402935982
3,1.15340662,-8.303091049,-2.7521348,0.579103947,0.570981324,0.402935982
3,1.15340662,-8.303091049,-2.7521348,0.579103947,0.570981324,0.402935982
3,1.15340662,-8.303091049,-2.7521348,0.579103947,0.570981324,0.402935982
3,1.15340662,-8.303091049,-2.7521348,0.579103947,0.570981324,0.402935982
3,0.894832909,-9.22725296,0.499191046,0.579103947,0.570981324,0.402935982
3,0.641047478,-10.0460701,1.768117905,0.579103947,0.570981324,0.402935982
3,0.516548991,-9.969455719,1.935712099,0.579103947,0.570981324,0.402935982
3,0.583586693,-10.22324085,-1.665167332,-2.104694605,0.925714076,-0.705204546
3,0.583586693,-10.22324085,-1.665167332,-2.104694605,0.925714076,-0.705204546
3,0.583586693,-10.22324085,-1.665167332,-2.104694605,0.925714076,-0.705204546
3,0.583586693,-10.22324085,-1.665167332,-2.104694605,0.925714076,-0.705204546
3,0.583586693,-10.22324085,-1.665167332,-2.104694605,0.925714076,-0.705204546
3,0.583586693,-10.22324085,-1.665167332,-2.104694605,0.925714076,-0.705204546
3,0.583586693,-10.22324085,-1.665167332,-2.104694605,0.925714076,-0.705204546
3,2.039261341,-11.5975132,0.939724147,-2.104694605,0.925714076,-0.705204546
3,0.990600944,-12.22479343,0.192733243,-2.104694605,0.925714076,-0.705204546
3,-1.240795016,-11.61666679,1.56221664,-2.104694605,0.925714076,-0.705204546
3,-1.240795016,-11.61666679,1.56221664,-2.104694605,0.925714076,-0.705204546
3,-1.240795016,-11.61666679,1.56221664,-2.104694605,0.925714076,-0.705204546
3,-1.240795016,-11.61666679,1.56221664,-2.104694605,0.925714076,-0.705204546
3,-1.240795016,-11.61666679,1.56221664,-2.104694605,0.925714076,-0.705204546
3,-1.240795016,-11.61666679,1.56221664,-2.104694605,0.925714076,-0.705204546
3,-3.448249102,-13.44104862,2.582146645,-2.104694605,0.925714076,-0.705204546
3,1.742380261,-8.183381081,-2.455253839,0.653272927,-0.194543779,0.289751709
3,1.742380261,-8.183381081,-2.455253839,0.653272927,-0.194543779,0.289751709
3,1.742380261,-8.183381081,-2.455253839,0.653272927,-0.194543779,0.289751709
3,1.742380261,-8.183381081,-2.455253839,0.653272927,-0.194543779,0.289751709
3,-0.125097036,-7.709329605,0.393846184,0.653272927,-0.194543779,0.289751709
3,-1.499368787,-6.866570473,0.460883826,0.653272927,-0.194543779,0.289751709
3,-2.629431963,-6.167463779,0.44651863,0.653272927,-0.194543779,0.289751709
3,3.60506916,-12.52646351,-8.589199066,0.564456582,-0.093610041,0.37004596
3,3.60506916,-12.52646351,-8.589199066,0.564456582,-0.093610041,0.37004596
3,3.60506916,-12.52646351,-8.589199066,0.564456582,-0.093610041,0.37004596
3,3.60506916,-12.52646351,-8.589199066,0.564456582,-0.093610041,0.37004596
3,3.60506916,-12.52646351,-8.589199066,0.564456582,-0.093610041,0.37004596
3,3.60506916,-12.52646351,-8.589199066,0.564456582,-0.093610041,0.37004596
3,6.320094109,-17.5590744,-12.00333023,0.564456582,-0.093610041,0.37004596
3,5.146934986,-13.26387787,-5.711368084,0.564456582,-0.093610041,0.37004596
3,-1.389235497,-10.87446404,-1.229422569,0.564456582,-0.093610041,0.37004596
3,-2.662950754,-11.04205799,2.313995838,0.942492008,0.169243768,0.177899033
3,-2.662950754,-11.04205799,2.313995838,0.942492008,0.169243768,0.177899033
3,-2.662950754,-11.04205799,2.313995838,0.942492008,0.169243768,0.177899033
3,-2.662950754,-11.04205799,2.313995838,0.942492008,0.169243768,0.177899033
3,-2.662950754,-11.04205799,2.313995838,0.942492008,0.169243768,0.177899033
3,-2.662950754,-11.04205799,2.313995838,0.942492008,0.169243768,0.177899033
3,-2.662950754,-11.04205799,2.313995838,0.942492008,0.169243768,0.177899033
3,-0.460285276,-11.21444035,3.23336935,0.942492008,0.169243768,0.177899033
3,0.732027173,-8.322244644,1.207874775,0.942492008,0.169243768,0.177899033
3,0.099957921,-8.978256226,1.868674397,0.942492008,0.169243768,0.177899033
3,0.099957921,-8.978256226,1.868674397,0.942492008,0.169243768,0.177899033
3,0.099957921,-8.978256226,1.868674397,0.942492008,0.169243768,0.177899033
3,0.099957921,-8.978256226,1.868674397,0.942492008,0.169243768,0.177899033
3,0.099957921,-8.978256226,1.868674397,0.942492008,0.169243768,0.177899033
3,0.099957921,-8.978256226,1.868674397,0.942492008,0.169243768,0.177899033
3,-0.59436059,-8.77235508,0.652419984,-1.301885366,-0.339020163,-0.139416382
3,1.85730195,-10.74038887,1.322796464,-1.301885366,-0.339020163,-0.139416382
3,1.85730195,-10.74038887,1.322796464,-1.301885366,-0.339020163,-0.139416382
3,1.85730195,-10.74038887,1.322796464,-1.301885366,-0.339020163,-0.139416382
3,1.85730195,-10.74038887,1.322796464,-1.301885366,-0.339020163,-0.139416382
3,1.85730195,-10.74038887,1.322796464,-1.301885366,-0.339020163,-0.139416382
3,1.85730195,-10.74038887,1.322796464,-1.301885366,-0.339020163,-0.139416382
3,2.451063871,-11.99973869,0.997184992,-1.301885366,-0.339020163,-0.139416382
3,-1.250371814,-10.60631371,0.202310041,-0.967925191,-0.126899526,-0.651408732
3,-1.250371814,-10.60631371,0.202310041,-0.967925191,-0.126899526,-0.651408732
3,-1.250371814,-10.60631371,0.202310041,-0.967925191,-0.126899526,-0.651408732
3,-1.590348482,-12.39238834,2.15597868,-0.967925191,-0.126899526,-0.651408732
3,-3.117849112,-13.9055233,2.902969599,-0.967925191,-0.126899526,-0.651408732
3,-3.117849112,-13.9055233,2.902969599,-0.967925191,-0.126899526,-0.651408732
3,-4.611831188,-14.31253815,2.280477047,-0.967925191,-0.126899526,-0.651408732
3,0.9283517,-8.576030731,-0.415394008,0.657800317,0.036485281,0.121972688
3,0.9283517,-8.576030731,-0.415394008,0.657800317,0.036485281,0.121972688
3,0.9283517,-8.576030731,-0.415394008,0.657800317,0.036485281,0.121972688
3,0.9283517,-8.576030731,-0.415394008,0.657800317,0.036485281,0.121972688
3,0.9283517,-8.576030731,-0.415394008,0.657800317,0.036485281,0.121972688
3,0.9283517,-8.576030731,-0.415394008,0.657800317,0.036485281,0.121972688
3,0.9283517,-8.576030731,-0.415394008,0.657800317,0.036485281,0.121972688
3,-2.734776974,-5.923254967,0.523133099,0.657800317,0.036485281,0.121972688
3,-3.017292738,-4.544194698,0.235828862,0.657800317,0.036485281,0.121972688
3,0.85652566,-8.29830265,-5.61081171,0.657800317,0.036485281,0.121972688
3,0.85652566,-8.29830265,-5.61081171,0.657800317,0.036485281,0.121972688
3,0.85652566,-8.29830265,-5.61081171,0.657800317,0.036485281,0.121972688
3,0.85652566,-8.29830265,-5.61081171,0.657800317,0.036485281,0.121972688
3,0.85652566,-8.29830265,-5.61081171,0.657800317,0.036485281,0.121972688
3,0.85652566,-8.29830265,-5.61081171,0.657800317,0.036485281,0.121972688
3,-3.56795907,-14.74828243,0.848744512,0.657800317,0.036485281,0.121972688
3,-2.509721994,-2.379836559,0.264559299,1.005209446,-0.499209166,0.579503417
3,-2.509721994,-2.379836559,0.264559299,1.005209446,-0.499209166,0.579503417
3,-2.131438017,-14.56632328,3.037044764,1.005209446,-0.499209166,0.579503417
3,-2.131438017,-14.56632328,3.037044764,1.005209446,-0.499209166,0.579503417
3,-2.131438017,-14.56632328,3.037044764,1.005209446,-0.499209166,0.579503417
3,-2.131438017,-14.56632328,3.037044764,1.005209446,-0.499209166,0.579503417
3,-2.131438017,-14.56632328,3.037044764,1.005209446,-0.499209166,0.579503417
3,-0.656609833,-9.270348549,3.190273762,1.005209446,-0.499209166,0.579503417
3,0.760757565,-10.07001209,2.634819031,0.182026923,0.492551267,0.302668035
3,0.760757565,-10.07001209,2.634819031,0.182026923,0.492551267,0.302668035
3,0.760757565,-10.07001209,2.634819031,0.182026923,0.492551267,0.302668035
3,0.760757565,-10.07001209,2.634819031,0.182026923,0.492551267,0.302668035
3,0.33458969,-9.777919769,2.036268473,0.182026923,0.492551267,0.302668035
3,-0.876876354,-8.805873871,-0.190339029,0.182026923,0.492551267,0.302668035
3,2.422333479,-11.38682365,0.125695586,-1.625192881,0.277634323,-1.018125772
3,2.422333479,-11.38682365,0.125695586,-1.625192881,0.277634323,-1.018125772
3,2.422333479,-11.38682365,0.125695586,-1.625192881,0.277634323,-1.018125772
3,2.422333479,-11.38682365,0.125695586,-1.625192881,0.277634323,-1.018125772
3,2.422333479,-11.38682365,0.125695586,-1.625192881,0.277634323,-1.018125772
3,1.89560914,-12.9239006,-3.470395327,-1.625192881,0.277634323,-1.018125772
3,0.784699619,-10.97502041,-3.700238705,-1.625192881,0.277634323,-1.018125772
3,-0.74280107,-9.610325813,-1.516726732,-1.625192881,0.277634323,-1.018125772
3,-1.384447098,-8.499416351,1.590947032,0.649544477,-0.431698084,0.269245386
3,-1.384447098,-8.499416351,1.590947032,0.649544477,-0.431698084,0.269245386
3,-1.384447098,-8.499416351,1.590947032,0.649544477,-0.431698084,0.269245386
3,-1.384447098,-8.499416351,1.590947032,0.649544477,-0.431698084,0.269245386
3,-1.384447098,-8.499416351,1.590947032,0.649544477,-0.431698084,0.269245386
3,-1.384447098,-8.499416351,1.590947032,0.649544477,-0.431698084,0.269245386
3,-1.384447098,-8.499416351,1.590947032,0.649544477,-0.431698084,0.269245386
3,1.431134105,-7.278373241,-1.784877419,0.649544477,-0.431698084,0.269245386
3,-3.323750496,-4.57771349,0.245405674,0.649544477,-0.431698084,0.269245386
3,-3.323750496,-4.57771349,0.245405674,0.649544477,-0.431698084,0.269245386
3,-3.323750496,-4.57771349,0.245405674,0.649544477,-0.431698084,0.269245386
3,-3.323750496,-4.57771349,0.245405674,0.649544477,-0.431698084,0.269245386
3,-3.323750496,-4.57771349,0.245405674,0.649544477,-0.431698084,0.269245386
3,-3.323750496,-4.57771349,0.245405674,0.649544477,-0.431698084,0.269245386
3,-1.724423766,-4.67827034,-0.980425596,0.649544477,-0.431698084,0.269245386
3,4.754285812,-11.91354752,-6.649895191,0.538224459,-0.001464737,0.452603877
3,4.754285812,-11.91354752,-6.649895191,0.538224459,-0.001464737,0.452603877
3,4.754285812,-11.91354752,-6.649895191,0.538224459,-0.001464737,0.452603877
3,-2.011728048,-4.893748283,-0.851138711,0.538224459,-0.001464737,0.452603877
3,-2.011728048,-4.893748283,-0.851138711,0.538224459,-0.001464737,0.452603877
3,-2.011728048,-4.893748283,-0.851138711,0.538224459,-0.001464737,0.452603877
3,-2.011728048,-4.893748283,-0.851138711,0.538224459,-0.001464737,0.452603877
3,-2.011728048,-4.893748283,-0.851138711,0.538224459,-0.001464737,0.452603877
3,-2.011728048,-4.893748283,-0.851138711,0.538224459,-0.001464737,0.452603877
3,-3.673303843,-4.467580318,1.313219666,0.538224459,-0.001464737,0.452603877
3,0.612317085,-8.092401505,1.159990668,0.727974534,0.532232344,0.359792799
3,0.612317085,-8.092401505,1.159990668,0.727974534,0.532232344,0.359792799
3,0.612317085,-8.092401505,1.159990668,0.727974534,0.532232344,0.359792799
3,0.612317085,-8.092401505,1.159990668,0.727974534,0.532232344,0.359792799
3,0.612317085,-8.092401505,1.159990668,0.727974534,0.532232344,0.359792799
3,0.81821841,-8.935160637,-0.252588272,0.727974534,0.532232344,0.359792799
3,0.262763649,-9.045293808,1.260547161,0.727974534,0.532232344,0.359792799
3,-2.294243813,-10.57758331,-0.693121374,0.727974534,0.532232344,0.359792799
3,-2.294243813,-10.57758331,-0.693121374,0.727974534,0.532232344,0.359792799
3,-2.294243813,-10.57758331,-0.693121374,0.727974534,0.532232344,0.359792799
3,-2.294243813,-10.57758331,-0.693121374,0.727974534,0.532232344,0.359792799
3,-2.294243813,-10.57758331,-0.693121374,0.727974534,0.532232344,0.359792799
3,-2.294243813,-10.57758331,-0.693121374,0.727974534,0.532232344,0.359792799
3,0.506972194,-9.993397713,-2.412158251,0.727974534,0.532232344,0.359792799
3,1.196502328,-12.71321106,-0.731428623,-1.956489801,0.609330773,-0.887897253
3,1.196502328,-12.71321106,-0.731428623,-1.956489801,0.609330773,-0.887897253
3,1.660977483,-14.74828243,-2.809595585,-1.956489801,0.609330773,-0.887897253
3,1.632246971,-12.83770943,-4.610035419,-1.956489801,0.609330773,-0.887897253
3,-3.089118719,-10.88404083,-2.014720678,-1.956489801,0.609330773,-0.887897253
3,-3.089118719,-10.88404083,-2.014720678,-1.956489801,0.609330773,-0.887897253
3,-3.089118719,-10.88404083,-2.014720678,-1.956489801,0.609330773,-0.887897253
3,-3.089118719,-10.88404083,-2.014720678,-1.956489801,0.609330773,-0.887897253
3,-3.089118719,-10.88404083,-2.014720678,-1.956489801,0.609330773,-0.887897253
3,-3.089118719,-10.88404083,-2.014720678,-1.956489801,0.609330773,-0.887897253
3,-2.184110403,-7.149086475,3.726574898,-1.956489801,0.609330773,-0.887897253
3,-1.906383157,-6.296750546,0.590170741,0.594150782,0.148471117,0.017443692
3,-1.906383157,-6.296750546,0.590170741,0.594150782,0.148471117,0.017443692
3,-1.906383157,-6.296750546,0.590170741,0.594150782,0.148471117,0.017443692
3,-1.906383157,-6.296750546,0.590170741,0.594150782,0.148471117,0.017443692
3,-1.906383157,-6.296750546,0.590170741,0.594150782,0.148471117,0.017443692
3,-2.998139143,-5.037400246,0.695515573,0.594150782,0.148471117,0.017443692
3,-3.213617325,-4.802768707,0.719457626,0.594150782,0.148471117,0.017443692
3,-2.619855165,-4.879383087,-0.381875157,0.594150782,0.148471117,0.017443692
3,-2.78744936,-10.16099167,-0.597353339,0.594150782,0.148471117,0.017443692
3,-2.78744936,-10.16099167,-0.597353339,0.594150782,0.148471117,0.017443692
3,-2.78744936,-10.16099167,-0.597353339,0.594150782,0.148471117,0.017443692
3,-2.78744936,-10.16099167,-0.597353339,0.594150782,0.148471117,0.017443692
3,-2.78744936,-10.16099167,-0.597353339,0.594150782,0.148471117,0.017443692
3,-2.78744936,-10.16099167,-0.597353339,0.594150782,0.148471117,0.017443692
3,-4.343680382,-14.67645645,1.571793437,0.594150782,0.148471117,0.017443692
3,-2.284667015,-15.99326706,5.24449873,1.199220538,-0.186287984,0.316383302
3,0.018555064,-9.337387085,3.056198359,1.199220538,-0.186287984,0.316383302
3,0.018555064,-9.337387085,3.056198359,1.199220538,-0.186287984,0.316383302
3,0.018555064,-9.337387085,3.056198359,1.199220538,-0.186287984,0.316383302
3,0.018555064,-9.337387085,3.056198359,1.199220538,-0.186287984,0.316383302
3,0.018555064,-9.337387085,3.056198359,1.199220538,-0.186287984,0.316383302
3,0.018555064,-9.337387085,3.056198359,1.199220538,-0.186287984,0.316383302
3,0.789488018,-8.255207062,-0.994790792,1.199220538,-0.186287984,0.316383302
3,-0.115520231,-9.524134636,2.304419041,-0.942225695,-0.155927971,0.087085299
3,-0.115520231,-9.524134636,2.304419041,-0.942225695,-0.155927971,0.087085299
3,-0.115520231,-9.524134636,2.304419041,-0.942225695,-0.155927971,0.087085299
3,-0.115520231,-9.524134636,2.304419041,-0.942225695,-0.155927971,0.087085299
3,-0.517746091,-8.604761124,1.255758762,-0.942225695,-0.155927971,0.087085299
3,-1.049258947,-9.399636269,0.599747539,-0.942225695,-0.155927971,0.087085299
3,-1.049258947,-9.399636269,0.599747539,-0.942225695,-0.155927971,0.087085299
3,-1.724423766,-10.75954247,-0.573411286,-0.942225695,-0.155927971,0.087085299
3,2.350507498,-13.63258457,-0.061052144,-0.942225695,-0.155927971,0.087085299
3,2.350507498,-13.63258457,-0.061052144,-0.942225695,-0.155927971,0.087085299
3,2.350507498,-13.63258457,-0.061052144,-0.942225695,-0.155927971,0.087085299
3,2.350507498,-13.63258457,-0.061052144,-0.942225695,-0.155927971,0.087085299
3,2.350507498,-13.63258457,-0.061052144,-0.942225695,-0.155927971,0.087085299
3,2.350507498,-13.63258457,-0.061052144,-0.942225695,-0.155927971,0.087085299
3,1.18692553,-11.55441761,-3.585317135,-0.958737254,-0.112784788,-0.829174578
3,-1.71005857,-9.203310966,0.714669228,-0.958737254,-0.112784788,-0.829174578
3,-1.71005857,-9.203310966,0.714669228,-0.958737254,-0.112784788,-0.829174578
3,-1.71005857,-9.203310966,0.714669228,-0.958737254,-0.112784788,-0.829174578
3,-1.71005857,-9.203310966,0.714669228,-0.958737254,-0.112784788,-0.829174578
3,-1.71005857,-9.203310966,0.714669228,-0.958737254,-0.112784788,-0.829174578
3,-1.71005857,-9.203310966,0.714669228,-0.958737254,-0.112784788,-0.829174578
3,-1.71005857,-9.203310966,0.714669228,-0.958737254,-0.112784788,-0.829174578
3,-0.465073675,-7.733271599,2.946065187,-0.958737254,-0.112784788,-0.829174578
3,-1.058835745,-5.975927353,0.618901134,0.799080908,0.116912685,0.19201377
3,-1.058835745,-5.975927353,0.618901134,0.799080908,0.116912685,0.19201377
3,-1.058835745,-5.975927353,0.618901134,0.799080908,0.116912685,0.19201377
3,-1.954267144,-5.305551052,0.973242998,0.799080908,0.116912685,0.19201377
3,-1.954267144,-5.305551052,0.973242998,0.799080908,0.116912685,0.19201377
3,-1.954267144,-5.305551052,0.973242998,0.799080908,0.116912685,0.19201377
3,-3.27107811,-4.381389141,0.652419984,0.799080908,0.116912685,0.19201377
3,5.534795761,-11.32936287,-6.487089634,0.799080908,0.116912685,0.19201377
3,5.534795761,-11.32936287,-6.487089634,0.799080908,0.116912685,0.19201377
3,5.534795761,-11.32936287,-6.487089634,0.799080908,0.116912685,0.19201377
3,5.534795761,-11.32936287,-6.487089634,0.799080908,0.116912685,0.19201377
3,5.534795761,-11.32936287,-6.487089634,0.799080908,0.116912685,0.19201377
3,-4.08510685,-15.36598682,2.060210466,0.799080908,0.116912685,0.19201377
3,-3.467402697,-3.8642416,0.733822823,1.161936283,0.207726404,0.222240627
3,-3.467402697,-3.8642416,0.733822823,1.161936283,0.207726404,0.222240627
3,-3.467402697,-3.8642416,0.733822823,1.161936283,0.207726404,0.222240627
3,-3.467402697,-3.8642416,0.733822823,1.161936283,0.207726404,0.222240627
3,-2.160168409,-7.95832634,2.333149672,1.161936283,0.207726404,0.222240627
3,-0.330998391,-13.17289734,3.578134537,1.161936283,0.207726404,0.222240627
3,0.459088176,-8.983044624,2.668337822,1.161936283,0.207726404,0.222240627
3,-0.04369418,-9.294290543,1.8590976,1.161936283,0.207726404,0.222240627
3,-0.04369418,-9.294290543,1.8590976,1.161936283,0.207726404,0.222240627
3,-0.04369418,-9.294290543,1.8590976,1.161936283,0.207726404,0.222240627
3,-0.04369418,-9.294290543,1.8590976,1.161936283,0.207726404,0.222240627
3,-0.04369418,-9.294290543,1.8590976,1.161936283,0.207726404,0.222240627
3,-0.04369418,-9.294290543,1.8590976,1.161936283,0.207726404,0.222240627
3,-0.04369418,-9.294290543,1.8590976,1.161936283,0.207726404,0.222240627
3,-0.690128624,-8.561665535,1.11689508,-1.605618596,-0.584030807,-0.257660657
3,2.091933727,-11.10430717,0.982819796,-1.605618596,-0.584030807,-0.257660657
3,2.091933727,-11.10430717,0.982819796,-1.605618596,-0.584030807,-0.257660657
3,2.091933727,-11.10430717,0.982819796,-1.605618596,-0.584030807,-0.257660657
3,2.091933727,-11.10430717,0.982819796,-1.605618596,-0.584030807,-0.257660657
3,2.091933727,-11.10430717,0.982819796,-1.605618596,-0.584030807,-0.257660657
3,2.091933727,-11.10430717,0.982819796,-1.605618596,-0.584030807,-0.257660657
3,2.149394512,-12.88080502,-0.92775315,-1.605618596,-0.584030807,-0.257660657
3,-1.135450125,-11.9757967,2.251746655,-0.455267042,-0.928510427,-0.387090176
3,-1.135450125,-11.9757967,2.251746655,-0.455267042,-0.928510427,-0.387090176
3,-1.135450125,-11.9757967,2.251746655,-0.455267042,-0.928510427,-0.387090176
3,-2.461838007,-14.01565647,3.429693937,-0.455267042,-0.928510427,-0.387090176
3,-2.461838007,-14.01565647,3.429693937,-0.455267042,-0.928510427,-0.387090176
3,-2.461838007,-14.01565647,3.429693937,-0.455267042,-0.928510427,-0.387090176
3,-3.860051632,-10.97502041,-2.029085875,-0.455267042,-0.928510427,-0.387090176
3,1.349731207,-8.609549522,-0.463278025,-0.455267042,-0.928510427,-0.387090176
3,1.349731207,-8.609549522,-0.463278025,-0.455267042,-0.928510427,-0.387090176
3,1.349731207,-8.609549522,-0.463278025,-0.455267042,-0.928510427,-0.387090176
3,1.349731207,-8.609549522,-0.463278025,-0.455267042,-0.928510427,-0.387090176
3,1.349731207,-8.609549522,-0.463278025,-0.455267042,-0.928510427,-0.387090176
3,1.349731207,-8.609549522,-0.463278025,-0.455267042,-0.928510427,-0.387090176
3,-2.974197149,-5.406107426,0.642843127,-0.455267042,-0.928510427,-0.387090176
3,0.554856241,-7.378929615,-3.168725967,0.480966538,0.551407099,-0.040746335
3,0.554856241,-7.378929615,-3.168725967,0.480966538,0.551407099,-0.040746335
3,3.820547342,-12.19127464,-9.680954933,0.480966538,0.551407099,-0.040746335
3,6.966528416,-18.06664658,-14.24430275,0.480966538,0.551407099,-0.040746335
3,-3.261501312,-16.31887817,5.005078793,0.480966538,0.551407099,-0.040746335
3,-3.261501312,-16.31887817,5.005078793,0.480966538,0.551407099,-0.040746335
3,-3.261501312,-16.31887817,5.005078793,0.480966538,0.551407099,-0.040746335
3,-3.261501312,-16.31887817,5.005078793,0.480966538,0.551407099,-0.040746335
3,-3.261501312,-16.31887817,5.005078793,0.480966538,0.551407099,-0.040746335
3,-3.261501312,-16.31887817,5.005078793,0.480966538,0.551407099,-0.040746335
3,-2.088342428,-7.55131197,-2.167949677,0.480966538,0.551407099,-0.040746335
3,-1.322197914,-12.80897903,3.621230125,1.173387885,0.296010137,0.272441179
3,-1.322197914,-12.80897903,3.621230125,1.173387885,0.296010137,0.272441179
3,-0.661398232,-11.30542088,3.606864929,1.173387885,0.296010137,0.272441179
3,-0.661398232,-11.30542088,3.606864929,1.173387885,0.296010137,0.272441179
3,-0.311844766,-9.423578262,2.802412987,1.173387885,0.296010137,0.272441179
3,0.061650693,-10.14183807,1.734599113,1.173387885,0.296010137,0.272441179
3,0.061650693,-10.14183807,1.734599113,1.173387885,0.296010137,0.272441179
3,0.061650693,-10.14183807,1.734599113,1.173387885,0.296010137,0.272441179
3,0.061650693,-10.14183807,1.734599113,1.173387885,0.296010137,0.272441179
3,0.061650693,-10.14183807,1.734599113,1.173387885,0.296010137,0.272441179
3,0.008978256,-9.102754593,1.547851443,1.173387885,0.296010137,0.272441179
3,-0.091578215,-10.15141487,-5.189432144,-1.863279223,-0.477371275,-0.319179624
3,-0.091578215,-10.15141487,-5.189432144,-1.863279223,-0.477371275,-0.319179624
3,-0.091578215,-10.15141487,-5.189432144,-1.863279223,-0.477371275,-0.319179624
3,1.292270422,-10.88882923,-1.794454217,-1.863279223,-0.477371275,-0.319179624
3,2.671330452,-13.10107136,0.049081136,-1.863279223,-0.477371275,-0.319179624
3,2.671330452,-13.10107136,0.049081136,-1.863279223,-0.477371275,-0.319179624
3,2.671330452,-13.10107136,0.049081136,-1.863279223,-0.477371275,-0.319179624
3,2.671330452,-13.10107136,0.049081136,-1.863279223,-0.477371275,-0.319179624
3,2.671330452,-13.10107136,0.049081136,-1.863279223,-0.477371275,-0.319179624
3,-1.11629653,-9.576807022,-1.057040095,-1.863279223,-0.477371275,-0.319179624
3,-4.803367138,-13.61343098,-0.080205753,0.286156446,-0.144609541,-0.05672529
3,-4.803367138,-13.61343098,-0.080205753,0.286156446,-0.144609541,-0.05672529
3,-4.803367138,-13.61343098,-0.080205753,0.286156446,-0.144609541,-0.05672529
3,-4.803367138,-13.61343098,-0.080205753,0.286156446,-0.144609541,-0.05672529
3,-2.658162355,-11.03248119,-1.124077678,0.286156446,-0.144609541,-0.05672529
3,-1.370081902,-7.091625214,4.253299236,0.286156446,-0.144609541,-0.05672529
3,1.775899053,-7.110779285,-2.014720678,0.286156446,-0.144609541,-0.05672529
3,-3.050811529,-5.080495834,0.523133099,0.554602861,0.745151937,-0.169376925
3,-3.050811529,-5.080495834,0.523133099,0.554602861,0.745151937,-0.169376925
3,-3.050811529,-5.080495834,0.523133099,0.554602861,0.745151937,-0.169376925
3,-3.050811529,-5.080495834,0.523133099,0.554602861,0.745151937,-0.169376925
3,-3.050811529,-5.080495834,0.523133099,0.554602861,0.745151937,-0.169376925
3,-3.050811529,-5.080495834,0.523133099,0.554602861,0.745151937,-0.169376925
3,-3.050811529,-5.080495834,0.523133099,0.554602861,0.745151937,-0.169376925
3,0.281917244,-7.762001991,-3.135207176,0.554602861,0.745151937,-0.169376925
3,-3.668515444,-16.29972458,-3.345896959,0.554602861,0.745151937,-0.169376925
3,-3.668515444,-16.29972458,-3.345896959,0.554602861,0.745151937,-0.169376925
3,-3.668515444,-16.29972458,-3.345896959,0.554602861,0.745151937,-0.169376925
3,-3.668515444,-16.29972458,-3.345896959,0.554602861,0.745151937,-0.169376925
3,-3.668515444,-16.29972458,-3.345896959,0.554602861,0.745151937,-0.169376925
3,-3.668515444,-16.29972458,-3.345896959,0.554602861,0.745151937,-0.169376925
3,-1.360505104,-11.83693314,5.325901508,0.554602861,0.745151937,-0.169376925
3,-3.515286684,-13.20641613,2.208651066,0.840359867,0.412390172,0.107857943
3,-3.515286684,-13.20641613,2.208651066,0.840359867,0.412390172,0.107857943
3,-3.515286684,-13.20641613,2.208651066,0.840359867,0.412390172,0.107857943
3,-1.93032515,-15.31810284,2.692279816,0.840359867,0.412390172,0.107857943
3,-1.93032515,-15.31810284,2.692279816,0.840359867,0.412390172,0.107857943
3,1.483806491,-9.47146225,-4.121618271,0.840359867,0.412390172,0.107857943
3,0.061650693,-9.639056206,1.313219666,0.840359867,0.412390172,0.107857943
3,0.061650693,-9.639056206,1.313219666,0.840359867,0.412390172,0.107857943
3,0.061650693,-9.639056206,1.313219666,0.840359867,0.412390172,0.107857943
3,0.061650693,-9.639056206,1.313219666,0.840359867,0.412390172,0.107857943
3,0.061650693,-9.639056206,1.313219666,0.840359867,0.412390172,0.107857943
3,0.061650693,-9.639056206,1.313219666,0.840359867,0.412390172,0.107857943
3,-1.183334231,-9.423578262,0.073023155,0.840359867,0.412390172,0.107857943
3,1.632246971,-11.44907284,-1.689109325,-1.970205069,-0.413854927,-0.47923547
3,1.632246971,-11.44907284,-1.689109325,-1.970205069,-0.413854927,-0.47923547
3,1.632246971,-11.44907284,-1.689109325,-1.970205069,-0.413854927,-0.47923547
3,1.091157436,-11.0133276,-0.865503907,-1.970205069,-0.413854927,-0.47923547
3,1.091157436,-11.0133276,-0.865503907,-1.970205069,-0.413854927,-0.47923547
3,1.091157436,-11.0133276,-0.865503907,-1.970205069,-0.413854927,-0.47923547
3,1.091157436,-11.0133276,-0.865503907,-1.970205069,-0.413854927,-0.47923547
3,1.091157436,-11.0133276,-0.865503907,-1.970205069,-0.413854927,-0.47923547
3,1.823783159,-12.51209831,-4.79678297,-1.970205069,-0.413854927,-0.47923547
3,-4.999691486,-15.8544035,1.52390933,-0.223572209,-0.752475619,-0.233958527
3,-4.999691486,-15.8544035,1.52390933,-0.223572209,-0.752475619,-0.233958527
3,-4.999691486,-15.8544035,1.52390933,-0.223572209,-0.752475619,-0.233958527
3,-4.999691486,-15.8544035,1.52390933,-0.223572209,-0.752475619,-0.233958527
3,-5.665279865,-14.19761562,-2.100912094,-0.223572209,-0.752475619,-0.233958527
3,0.305859268,-6.670246124,4.061763287,-0.223572209,-0.752475619,-0.233958527
3,-1.959055543,-4.740519524,0.389057785,-0.223572209,-0.752475619,-0.233958527
3,-1.959055543,-4.740519524,0.389057785,-0.223572209,-0.752475619,-0.233958527
3,-1.959055543,-4.740519524,0.389057785,-0.223572209,-0.752475619,-0.233958527
3,-1.959055543,-4.740519524,0.389057785,-0.223572209,-0.752475619,-0.233958527
3,-1.959055543,-4.740519524,0.389057785,-0.223572209,-0.752475619,-0.233958527
3,-1.959055543,-4.740519524,0.389057785,-0.223572209,-0.752475619,-0.233958527
3,-2.873640537,-4.381389141,0.020350715,-0.223572209,-0.752475619,-0.233958527
3,5.486911774,-17.17121506,-12.22359657,0.730770886,0.571247637,0.415985465
3,5.486911774,-17.17121506,-12.22359657,0.730770886,0.571247637,0.415985465
3,5.486911774,-17.17121506,-12.22359657,0.730770886,0.571247637,0.415985465
3,8.470087051,-20.13523674,-9.666589737,0.730770886,0.571247637,0.415985465
3,8.422203064,-15.37556362,-8.005013466,0.730770886,0.571247637,0.415985465
3,-2.600701571,-5.588066578,0.776918471,0.730770886,0.571247637,0.415985465
3,-2.600701571,-5.588066578,0.776918471,0.730770886,0.571247637,0.415985465
3,-2.600701571,-5.588066578,0.776918471,0.730770886,0.571247637,0.415985465
3,-2.600701571,-5.588066578,0.776918471,0.730770886,0.571247637,0.415985465
3,-2.600701571,-5.588066578,0.776918471,0.730770886,0.571247637,0.415985465
3,-2.600701571,-5.588066578,0.776918471,0.730770886,0.571247637,0.415985465
3,-3.362057686,-2.149993181,0.89184016,0.730770886,0.571247637,0.415985465
3,-0.311844766,-9.629479408,2.586935043,0.81386143,0.480833381,0.078030564
3,-0.311844766,-9.629479408,2.586935043,0.81386143,0.480833381,0.078030564
3,-0.311844766,-9.629479408,2.586935043,0.81386143,0.480833381,0.078030564
3,0.540491045,-8.609549522,1.356315255,0.81386143,0.480833381,0.078030564
3,0.89004451,-9.974244118,2.031480074,0.81386143,0.480833381,0.078030564
3,0.89004451,-9.974244118,2.031480074,0.81386143,0.480833381,0.078030564
3,0.89004451,-9.974244118,2.031480074,0.81386143,0.480833381,0.078030564
3,0.89004451,-9.974244118,2.031480074,0.81386143,0.480833381,0.078030564
3,0.89004451,-9.974244118,2.031480074,0.81386143,0.480833381,0.078030564
3,-0.532111347,-7.929595947,2.285265446,0.81386143,0.480833381,0.078030564
3,-2.366069794,-9.935936928,-1.827973008,-1.906555653,-0.128097951,-0.454334944
3,-2.366069794,-9.935936928,-1.827973008,-1.906555653,-0.128097951,-0.454334944
3,-2.366069794,-9.935936928,-1.827973008,-1.906555653,-0.128097951,-0.454334944
3,0.028131871,-9.916783333,-4.174290657,-1.906555653,-0.128097951,-0.454334944
3,1.996165633,-11.69328117,0.551863492,-1.906555653,-0.128097951,-0.454334944
3,0.028131871,-9.442731857,-0.008379706,-1.906555653,-0.128097951,-0.454334944
3,0.028131871,-9.442731857,-0.008379706,-1.906555653,-0.128097951,-0.454334944
3,0.028131871,-9.442731857,-0.008379706,-1.906555653,-0.128097951,-0.454334944
3,0.028131871,-9.442731857,-0.008379706,-1.906555653,-0.128097951,-0.454334944
3,0.028131871,-9.442731857,-0.008379706,-1.906555653,-0.128097951,-0.454334944
3,0.028131871,-9.442731857,-0.008379706,-1.906555653,-0.128097951,-0.454334944
3,-0.153827459,-11.41076565,2.141613483,-1.906555653,-0.128097951,-0.454334944
3,-2.097919226,-9.864110947,0.661996782,-0.128896907,-0.60573554,-0.145941123
3,-2.097919226,-9.864110947,0.661996782,-0.128896907,-0.60573554,-0.145941123
3,-1.786673069,-8.54251194,3.587711334,-0.128896907,-0.60573554,-0.145941123
3,-0.828992367,-8.111555099,1.691503525,-0.128896907,-0.60573554,-0.145941123
3,-3.002927542,-4.127603531,0.513556242,-0.128896907,-0.60573554,-0.145941123
3,-3.002927542,-4.127603531,0.513556242,-0.128896907,-0.60573554,-0.145941123
3,-3.002927542,-4.127603531,0.513556242,-0.128896907,-0.60573554,-0.145941123
3,-3.002927542,-4.127603531,0.513556242,-0.128896907,-0.60573554,-0.145941123
3,-3.002927542,-4.127603531,0.513556242,-0.128896907,-0.60573554,-0.145941123
3,-3.002927542,-4.127603531,0.513556242,-0.128896907,-0.60573554,-0.145941123
3,-3.366846085,-3.624821424,-0.290895492,-0.128896907,-0.60573554,-0.145941123
3,7.924209118,-18.9429245,-9.609128952,0.639291346,0.203065887,0.358594388
3,7.924209118,-18.9429245,-9.609128952,0.639291346,0.203065887,0.358594388
3,7.924209118,-18.9429245,-9.609128952,0.639291346,0.203065887,0.358594388
3,7.924209118,-18.9429245,-9.609128952,0.639291346,0.203065887,0.358594388
3,7.924209118,-18.9429245,-9.609128952,0.639291346,0.203065887,0.358594388
3,1.407191992,-6.861782074,-4.064157486,0.639291346,0.203065887,0.358594388
3,-1.805826664,-11.42991924,-0.075417355,0.639291346,0.203065887,0.358594388
3,-2.801814556,-16.06509399,1.183932781,0.639291346,0.203065887,0.358594388
3,-2.179322004,-13.60385418,3.38180995,1.0359689,0.365252256,0.225969046
3,-2.179322004,-13.60385418,3.38180995,1.0359689,0.365252256,0.225969046
3,-2.179322004,-13.60385418,3.38180995,1.0359689,0.365252256,0.225969046
3,-2.179322004,-13.60385418,3.38180995,1.0359689,0.365252256,0.225969046
3,-2.179322004,-13.60385418,3.38180995,1.0359689,0.365252256,0.225969046
3,-2.179322004,-13.60385418,3.38180995,1.0359689,0.365252256,0.225969046
3,-0.958279252,-8.978256226,3.23336935,1.0359689,0.365252256,0.225969046
3,0.04249708,-8.441955566,1.471236944,1.0359689,0.365252256,0.225969046
3,1.00496614,-9.064447403,-0.611718535,1.0359689,0.365252256,0.225969046
3,-0.02932897,-8.705317497,1.634042621,-1.774729252,-0.477770746,-0.255530119
3,-0.02932897,-8.705317497,1.634042621,-1.774729252,-0.477770746,-0.255530119
3,-0.02932897,-8.705317497,1.634042621,-1.774729252,-0.477770746,-0.255530119
3,-0.02932897,-8.705317497,1.634042621,-1.774729252,-0.477770746,-0.255530119
3,-0.02932897,-8.705317497,1.634042621,-1.774729252,-0.477770746,-0.255530119
3,-0.02932897,-8.705317497,1.634042621,-1.774729252,-0.477770746,-0.255530119
3,-0.02932897,-8.705317497,1.634042621,-1.774729252,-0.477770746,-0.255530119
3,-2.193687201,-12.23437023,-1.353921056,-1.774729252,-0.477770746,-0.255530119
3,0.181360781,-10.97980881,-4.768052578,-1.774729252,-0.477770746,-0.255530119
3,3.887584925,-13.58948898,-4.351461411,-1.774729252,-0.477770746,-0.255530119
3,3.887584925,-13.58948898,-4.351461411,-1.774729252,-0.477770746,-0.255530119
3,3.887584925,-13.58948898,-4.351461411,-1.774729252,-0.477770746,-0.255530119
3,3.887584925,-13.58948898,-4.351461411,-1.774729252,-0.477770746,-0.255530119
3,3.887584925,-13.58948898,-4.351461411,-1.774729252,-0.477770746,-0.255530119
3,-1.480215192,-9.907206535,-0.022744916,-1.774729252,-0.477770746,-0.255530119
3,-4.353257179,-10.81221485,-0.530315697,-0.609197617,-0.908270419,-0.484961271
3,-4.353257179,-10.81221485,-0.530315697,-0.609197617,-0.908270419,-0.484961271
3,-2.667739153,-8.29830265,1.255758762,-0.609197617,-0.908270419,-0.484961271
3,2.422333479,-9.749189377,-3.216609955,-0.609197617,-0.908270419,-0.484961271
3,2.422333479,-9.749189377,-3.216609955,-0.609197617,-0.908270419,-0.484961271
3,2.422333479,-9.749189377,-3.216609955,-0.609197617,-0.908270419,-0.484961271
3,2.422333479,-9.749189377,-3.216609955,-0.609197617,-0.908270419,-0.484961271
3,2.422333479,-9.749189377,-3.216609955,-0.609197617,-0.908270419,-0.484961271
3,-0.603937387,-7.503427982,-0.29568392,-0.609197617,-0.908270419,-0.484961271
3,-3.869628429,-4.42448473,0.489614248,0.465786517,0.59628135,-0.064981081
3,-3.869628429,-4.42448473,0.489614248,0.465786517,0.59628135,-0.064981081
3,-3.869628429,-4.42448473,0.489614248,0.465786517,0.59628135,-0.064981081
3,-2.926312923,-4.544194698,-0.535104096,0.465786517,0.59628135,-0.064981081
3,1.435922503,-7.450755596,-3.872621298,0.465786517,0.59628135,-0.064981081
3,-3.960608244,-14.66209126,-2.742558002,0.465786517,0.59628135,-0.064981081
3,-3.960608244,-14.66209126,-2.742558002,0.465786517,0.59628135,-0.064981081
3,-3.960608244,-14.66209126,-2.742558002,0.465786517,0.59628135,-0.064981081
3,-3.960608244,-14.66209126,-2.742558002,0.465786517,0.59628135,-0.064981081
3,-3.960608244,-14.66209126,-2.742558002,0.465786517,0.59628135,-0.064981081
3,-3.960608244,-14.66209126,-2.742558002,0.465786517,0.59628135,-0.064981081
3,-2.82575655,-8.777143478,3.089717388,0.940228343,-0.901079893,0.651408732
3,-0.455496877,-14.57590008,4.023456097,0.940228343,-0.901079893,0.651408732
3,-0.455496877,-14.57590008,4.023456097,0.940228343,-0.901079893,0.651408732
3,-0.455496877,-14.57590008,4.023456097,0.940228343,-0.901079893,0.651408732
3,-0.455496877,-14.57590008,4.023456097,0.940228343,-0.901079893,0.651408732
3,-0.455496877,-14.57590008,4.023456097,0.940228343,-0.901079893,0.651408732
3,-0.455496877,-14.57590008,4.023456097,0.940228343,-0.901079893,0.651408732
3,0.9283517,-9.543288231,-0.851138711,0.940228343,-0.901079893,0.651408732
3,0.200514391,-9.294290543,2.783259392,-0.626641333,0.023968432,0.101066887
3,0.200514391,-9.294290543,2.783259392,-0.626641333,0.023968432,0.101066887
3,0.200514391,-9.294290543,2.783259392,-0.626641333,0.023968432,0.101066887
3,0.028131871,-9.155426979,2.141613483,-0.626641333,0.023968432,0.101066887
3,0.028131871,-9.155426979,2.141613483,-0.626641333,0.023968432,0.101066887
3,0.028131871,-9.155426979,2.141613483,-0.626641333,0.023968432,0.101066887
3,-0.493804097,-9.399636269,1.222239971,-0.626641333,0.023968432,0.101066887
3,2.37923789,-11.23359394,0.839167714,-0.626641333,0.023968432,0.101066887
3,2.37923789,-11.23359394,0.839167714,-0.626641333,0.023968432,0.101066887
3,2.37923789,-11.23359394,0.839167714,-0.626641333,0.023968432,0.101066887
3,2.37923789,-11.23359394,0.839167714,-0.626641333,0.023968432,0.101066887
3,2.37923789,-11.23359394,0.839167714,-0.626641333,0.023968432,0.101066887
3,2.690484047,-13.21599293,-1.784877419,-0.626641333,0.023968432,0.101066887
3,-0.987009645,-11.69806957,1.696291924,-0.954875708,-0.537691832,-0.632766604
3,-0.987009645,-11.69806957,1.696291924,-0.954875708,-0.537691832,-0.632766604
3,-0.987009645,-11.69806957,1.696291924,-0.954875708,-0.537691832,-0.632766604
3,-2.141014814,-13.64216137,2.586935043,-0.954875708,-0.537691832,-0.632766604
3,-2.141014814,-13.64216137,2.586935043,-0.954875708,-0.537691832,-0.632766604
3,-4.913500309,-14.79137802,1.964442492,-0.954875708,-0.537691832,-0.632766604
3,1.397615194,-8.264783859,-1.631648421,-0.954875708,-0.537691832,-0.632766604
3,1.397615194,-8.264783859,-1.631648421,-0.954875708,-0.537691832,-0.632766604
3,1.397615194,-8.264783859,-1.631648421,-0.954875708,-0.537691832,-0.632766604
3,1.397615194,-8.264783859,-1.631648421,-0.954875708,-0.537691832,-0.632766604
3,1.397615194,-8.264783859,-1.631648421,-0.954875708,-0.537691832,-0.632766604
3,1.397615194,-8.264783859,-1.631648421,-0.954875708,-0.537691832,-0.632766604
3,1.052850246,-8.6957407,-0.33399114,-0.954875708,-0.537691832,-0.632766604
3,-3.304596901,-4.242525578,0.254982471,0.627573431,0.346343845,0.042344231
3,-3.304596901,-4.242525578,0.254982471,0.627573431,0.346343845,0.042344231
3,-2.974197149,-4.687847137,-0.899022758,0.627573431,0.346343845,0.042344231
3,6.540360451,-15.25106525,-7.928399086,0.627573431,0.346343845,0.042344231
3,6.540360451,-15.25106525,-7.928399086,0.627573431,0.346343845,0.042344231
3,6.540360451,-15.25106525,-7.928399086,0.627573431,0.346343845,0.042344231
3,6.540360451,-15.25106525,-7.928399086,0.627573431,0.346343845,0.042344231
3,6.540360451,-15.25106525,-7.928399086,0.627573431,0.346343845,0.042344231
3,-0.738012671,-7.58961916,-4.030638695,0.627573431,0.346343845,0.042344231
3,-1.824980259,-6.368576527,1.088164687,0.929975152,-0.347409099,0.489754945
3,-1.824980259,-6.368576527,1.088164687,0.929975152,-0.347409099,0.489754945
3,-1.824980259,-6.368576527,1.088164687,0.929975152,-0.347409099,0.489754945
3,-2.959831953,-3.069366693,1.538274646,0.929975152,-0.347409099,0.489754945
3,-2.959831953,-3.069366693,1.538274646,0.929975152,-0.347409099,0.489754945
3,-2.610278368,-2.461239338,2.04584527,0.929975152,-0.347409099,0.489754945
3,1.301847219,-8.868123055,-0.994790792,0.929975152,-0.347409099,0.489754945
3,1.301847219,-8.868123055,-0.994790792,0.929975152,-0.347409099,0.489754945
3,1.301847219,-8.868123055,-0.994790792,0.929975152,-0.347409099,0.489754945
3,1.301847219,-8.868123055,-0.994790792,0.929975152,-0.347409099,0.489754945
3,1.301847219,-8.868123055,-0.994790792,0.929975152,-0.347409099,0.489754945
3,1.301847219,-8.868123055,-0.994790792,0.929975152,-0.347409099,0.489754945
3,0.832583666,-8.676587105,-1.727416515,0.929975152,-0.347409099,0.489754945
3,-0.316633165,-8.686163902,1.136048675,-0.592686057,-0.01238369,0.196541145
3,-0.316633165,-8.686163902,1.136048675,-0.592686057,-0.01238369,0.196541145
3,-0.316633165,-8.686163902,1.136048675,-0.592686057,-0.01238369,0.196541145
3,-0.694917023,-9.232041359,0.93014735,-0.592686057,-0.01238369,0.196541145
3,-1.346139908,-10.13226128,0.10175357,-0.592686057,-0.01238369,0.196541145
3,1.287482023,-11.68370438,0.489614248,-0.592686057,-0.01238369,0.196541145
3,1.287482023,-11.68370438,0.489614248,-0.592686057,-0.01238369,0.196541145
3,1.287482023,-11.68370438,0.489614248,-0.592686057,-0.01238369,0.196541145
3,1.287482023,-11.68370438,0.489614248,-0.592686057,-0.01238369,0.196541145
3,1.287482023,-11.68370438,0.489614248,-0.592686057,-0.01238369,0.196541145
3,1.287482023,-11.68370438,0.489614248,-0.592686057,-0.01238369,0.196541145
3,0.751180768,-14.38436413,-2.369062662,-0.592686057,-0.01238369,0.196541145
3,-0.977432847,-11.61666679,2.749740601,-1.002146721,-0.43555966,-0.817190349
3,-0.977432847,-11.61666679,2.749740601,-1.002146721,-0.43555966,-0.817190349
3,-2.504933596,-12.9334774,3.549403906,-1.002146721,-0.43555966,-0.817190349
3,-2.504933596,-12.9334774,3.549403906,-1.002146721,-0.43555966,-0.817190349
3,-3.558382273,-13.74750614,2.653972626,-1.002146721,-0.43555966,-0.817190349
3,1.182137132,-8.159439087,-2.187103271,-1.002146721,-0.43555966,-0.817190349
3,1.182137132,-8.159439087,-2.187103271,-1.002146721,-0.43555966,-0.817190349
3,1.182137132,-8.159439087,-2.187103271,-1.002146721,-0.43555966,-0.817190349
3,1.182137132,-8.159439087,-2.187103271,-1.002146721,-0.43555966,-0.817190349
3,1.182137132,-8.159439087,-2.187103271,-1.002146721,-0.43555966,-0.817190349
3,1.182137132,-8.159439087,-2.187103271,-1.002146721,-0.43555966,-0.817190349
3,1.431134105,-8.638279915,-0.377086759,-1.002146721,-0.43555966,-0.817190349
3,-3.481767893,-4.419696331,0.226252064,0.667920291,0.355398595,0.134489536
3,-3.481767893,-4.419696331,0.226252064,0.667920291,0.355398595,0.134489536
3,-3.481767893,-4.419696331,0.226252064,0.667920291,0.355398595,0.134489536
3,-1.461061597,-4.855441093,-0.922964752,0.667920291,0.355398595,0.134489536
3,8.652046204,-17.92299461,-8.967482567,0.667920291,0.355398595,0.134489536
3,8.652046204,-17.92299461,-8.967482567,0.667920291,0.355398595,0.134489536
3,8.652046204,-17.92299461,-8.967482567,0.667920291,0.355398595,0.134489536
3,8.652046204,-17.92299461,-8.967482567,0.667920291,0.355398595,0.134489536
3,8.652046204,-17.92299461,-8.967482567,0.667920291,0.355398595,0.134489536
3,1.977012038,-6.852205276,-5.577292919,0.667920291,0.355398595,0.134489536
3,-2.054823637,-7.862558365,1.442506552,1.09282732,-0.546613395,0.449541271
3,-2.054823637,-7.862558365,1.442506552,1.09282732,-0.546613395,0.449541271
3,-2.054823637,-7.862558365,1.442506552,1.09282732,-0.546613395,0.449541271
3,-3.208828926,-3.260902643,-0.942118347,1.09282732,-0.546613395,0.449541271
3,-3.208828926,-3.260902643,-0.942118347,1.09282732,-0.546613395,0.449541271
3,-3.208828926,-3.260902643,-0.942118347,1.09282732,-0.546613395,0.449541271
3,-2.461838007,-9.911994934,2.725798607,1.09282732,-0.546613395,0.449541271
3,1.373673201,-7.508216381,-3.49433732,1.09282732,-0.546613395,0.449541271
3,1.373673201,-7.508216381,-3.49433732,1.09282732,-0.546613395,0.449541271
3,1.373673201,-7.508216381,-3.49433732,1.09282732,-0.546613395,0.449541271
3,1.373673201,-7.508216381,-3.49433732,1.09282732,-0.546613395,0.449541271
3,1.373673201,-7.508216381,-3.49433732,1.09282732,-0.546613395,0.449541271
3,1.373673201,-7.508216381,-3.49433732,1.09282732,-0.546613395,0.449541271
3,0.257975221,-9.083600998,2.223016262,1.09282732,-0.546613395,0.449541271
3,-0.982221246,-10.85531044,0.293289721,-1.840642452,-0.23529011,-0.436358631
3,-0.982221246,-10.85531044,0.293289721,-1.840642452,-0.23529011,-0.436358631
3,-0.982221246,-10.85531044,0.293289721,-1.840642452,-0.23529011,-0.436358631
3,-0.982221246,-10.85531044,0.293289721,-1.840642452,-0.23529011,-0.436358631
3,-0.982221246,-10.85531044,0.293289721,-1.840642452,-0.23529011,-0.436358631
3,-2.179322004,-11.05642319,-6.314706802,-1.840642452,-0.23529011,-0.436358631
3,-0.25917232,-11.17134476,-2.258929253,-1.840642452,-0.23529011,-0.436358631
3,1.258751512,-11.04684639,1.341950059,-1.840642452,-0.23529011,-0.436358631
3,-1.384447098,-10.77390766,0.786495268,-0.852344096,-0.843023002,-0.632766604
3,-1.384447098,-10.77390766,0.786495268,-0.852344096,-0.843023002,-0.632766604
3,-1.384447098,-10.77390766,0.786495268,-0.852344096,-0.843023002,-0.632766604
3,-1.384447098,-10.77390766,0.786495268,-0.852344096,-0.843023002,-0.632766604
3,-1.384447098,-10.77390766,0.786495268,-0.852344096,-0.843023002,-0.632766604
3,-1.384447098,-10.77390766,0.786495268,-0.852344096,-0.843023002,-0.632766604
3,-2.442684174,-10.91277122,4.329913616,-0.852344096,-0.843023002,-0.632766604
3,-2.241571426,-13.19205093,-0.262165099,-0.852344096,-0.843023002,-0.632766604
3,0.119111538,-9.825803757,0.341173738,-0.852344096,-0.843023002,-0.632766604
3,0.119111538,-9.825803757,0.341173738,-0.852344096,-0.843023002,-0.632766604
3,0.119111538,-9.825803757,0.341173738,-0.852344096,-0.843023002,-0.632766604
3,0.119111538,-9.825803757,0.341173738,-0.852344096,-0.843023002,-0.632766604
3,0.119111538,-9.825803757,0.341173738,-0.852344096,-0.843023002,-0.632766604
3,0.119111538,-9.825803757,0.341173738,-0.852344096,-0.843023002,-0.632766604
3,-2.519298792,-4.994304657,0.676361978,0.638092935,0.229963794,0.046472125
3,6.664858818,-18.86631012,-14.0575552,0.638092935,0.229963794,0.046472125
3,6.664858818,-18.86631012,-14.0575552,0.638092935,0.229963794,0.046472125
3,6.664858818,-18.86631012,-14.0575552,0.638092935,0.229963794,0.046472125
3,6.664858818,-18.86631012,-14.0575552,0.638092935,0.229963794,0.046472125
3,6.664858818,-18.86631012,-14.0575552,0.638092935,0.229963794,0.046472125
3,6.664858818,-18.86631012,-14.0575552,0.638092935,0.229963794,0.046472125
3,6.664858818,-18.86631012,-14.0575552,0.638092935,0.229963794,0.046472125
3,5.620986938,-12.16733265,-6.817489147,0.638092935,0.229963794,0.046472125
3,-1.681328177,-8.250418663,-2.000355482,1.001081467,-0.125301629,0.34900701
3,-1.681328177,-8.250418663,-2.000355482,1.001081467,-0.125301629,0.34900701
3,-1.681328177,-8.250418663,-2.000355482,1.001081467,-0.125301629,0.34900701
3,-3.213617325,-4.769249916,-0.233434662,1.001081467,-0.125301629,0.34900701
3,-3.175309896,-4.553771496,1.394622445,1.001081467,-0.125301629,0.34900701
3,-2.150591612,-6.177040577,2.199074268,1.001081467,-0.125301629,0.34900701
3,1.253963113,-8.216899872,-1.751358509,1.001081467,-0.125301629,0.34900701
3,1.253963113,-8.216899872,-1.751358509,1.001081467,-0.125301629,0.34900701
3,1.253963113,-8.216899872,-1.751358509,1.001081467,-0.125301629,0.34900701
3,1.253963113,-8.216899872,-1.751358509,1.001081467,-0.125301629,0.34900701
3,1.253963113,-8.216899872,-1.751358509,1.001081467,-0.125301629,0.34900701
3,1.253963113,-8.216899872,-1.751358509,1.001081467,-0.125301629,0.34900701
3,1.253963113,-8.216899872,-1.751358509,1.001081467,-0.125301629,0.34900701
3,0.832583666,-9.81143856,0.642843127,-0.652340829,-0.130228475,0.190815344
3,-0.81941551,-9.854534149,-3.27407074,-0.652340829,-0.130228475,0.190815344
3,-0.81941551,-9.854534149,-3.27407074,-0.652340829,-0.130228475,0.190815344
3,-0.81941551,-9.854534149,-3.27407074,-0.652340829,-0.130228475,0.190815344
3,-0.81941551,-9.854534149,-3.27407074,-0.652340829,-0.130228475,0.190815344
3,-0.81941551,-9.854534149,-3.27407074,-0.652340829,-0.130228475,0.190815344
3,-0.81941551,-9.854534149,-3.27407074,-0.652340829,-0.130228475,0.190815344
3,1.996165633,-11.46822643,1.52390933,-0.652340829,-0.130228475,0.190815344
3,1.220444322,-10.40998936,-1.760935307,-1.032773137,0.25220117,-0.779373527
3,1.220444322,-10.40998936,-1.760935307,-1.032773137,0.25220117,-0.779373527
3,1.220444322,-10.40998936,-1.760935307,-1.032773137,0.25220117,-0.779373527
3,1.220444322,-10.40998936,-1.760935307,-1.032773137,0.25220117,-0.779373527
3,-0.393247634,-9.81143856,-0.094570965,-1.032773137,0.25220117,-0.779373527
3,-0.848145962,-11.08994198,0.863109708,-1.032773137,0.25220117,-0.779373527
3,-3.041234732,-14.06832886,3.798400879,-1.032773137,0.25220117,-0.779373527
3,-0.158615857,-8.54251194,-0.77931267,0.917191982,0.231694847,0.19121483
3,-0.158615857,-8.54251194,-0.77931267,0.917191982,0.231694847,0.19121483
3,-0.158615857,-8.54251194,-0.77931267,0.917191982,0.231694847,0.19121483
3,-0.158615857,-8.54251194,-0.77931267,0.917191982,0.231694847,0.19121483
3,-0.158615857,-8.54251194,-0.77931267,0.917191982,0.231694847,0.19121483
3,-0.158615857,-8.54251194,-0.77931267,0.917191982,0.231694847,0.19121483
3,-1.508945584,-6.598419666,0.824802458,0.917191982,0.231694847,0.19121483
3,-2.327762604,-5.099649429,1.035492182,0.917191982,0.231694847,0.19121483
3,6.27699852,-19.52231979,-13.31535244,0.917191982,0.231694847,0.19121483
3,6.27699852,-19.52231979,-13.31535244,0.917191982,0.231694847,0.19121483
3,6.27699852,-19.52231979,-13.31535244,0.917191982,0.231694847,0.19121483
3,6.27699852,-19.52231979,-13.31535244,0.917191982,0.231694847,0.19121483
3,6.27699852,-19.52231979,-13.31535244,0.917191982,0.231694847,0.19121483
3,6.27699852,-19.52231979,-13.31535244,0.917191982,0.231694847,0.19121483
3,6.27699852,-19.52231979,-13.31535244,0.917191982,0.231694847,0.19121483
3,5.855618954,-10.18014526,-5.577292919,1.095889926,-0.469514936,0.397343338
3,-2.667739153,-5.300762653,1.873462796,1.095889926,-0.469514936,0.397343338
3,-2.667739153,-5.300762653,1.873462796,1.095889926,-0.469514936,0.397343338
3,-2.667739153,-5.300762653,1.873462796,1.095889926,-0.469514936,0.397343338
3,-2.667739153,-5.300762653,1.873462796,1.095889926,-0.469514936,0.397343338
3,-2.667739153,-5.300762653,1.873462796,1.095889926,-0.469514936,0.397343338
3,-2.667739153,-5.300762653,1.873462796,1.095889926,-0.469514936,0.397343338
3,-1.293467522,-10.81700325,3.238157749,1.095889926,-0.469514936,0.397343338
3,0.751180768,-7.072471619,-2.34033227,0.67497766,0.587892354,0.394014388
3,0.751180768,-7.072471619,-2.34033227,0.67497766,0.587892354,0.394014388
3,0.751180768,-7.072471619,-2.34033227,0.67497766,0.587892354,0.394014388
3,0.751180768,-7.072471619,-2.34033227,0.67497766,0.587892354,0.394014388
3,0.123899937,-6.167463779,-1.660378933,0.67497766,0.587892354,0.394014388
3,0.123899937,-6.167463779,-1.660378933,0.67497766,0.587892354,0.394014388
3,-0.479438901,-10.51533413,2.00753808,0.67497766,0.587892354,0.394014388
3,-1.087566137,-11.17134476,-2.814383984,0.67497766,0.587892354,0.394014388
3,-1.087566137,-11.17134476,-2.814383984,0.67497766,0.587892354,0.394014388
3,-1.087566137,-11.17134476,-2.814383984,0.67497766,0.587892354,0.394014388
3,-1.087566137,-11.17134476,-2.814383984,0.67497766,0.587892354,0.394014388
3,-1.087566137,-11.17134476,-2.814383984,0.67497766,0.587892354,0.394014388
3,1.881243944,-11.38682365,0.489614248,0.67497766,0.587892354,0.394014388
3,3.025672436,-14.01086807,-3.82473731,-1.59802866,0.454601258,-0.892025113
3,3.025672436,-14.01086807,-3.82473731,-1.59802866,0.454601258,-0.892025113
3,1.948281646,-11.26232433,-3.331531763,-1.59802866,0.454601258,-0.892025113
3,-0.163404271,-9.528923035,-0.468066424,-1.59802866,0.454601258,-0.892025113
3,-1.446696401,-10.96544361,-2.163161278,-1.59802866,0.454601258,-0.892025113
3,-1.446696401,-10.96544361,-2.163161278,-1.59802866,0.454601258,-0.892025113
3,-1.446696401,-10.96544361,-2.163161278,-1.59802866,0.454601258,-0.892025113
3,-1.446696401,-10.96544361,-2.163161278,-1.59802866,0.454601258,-0.892025113
3,-1.446696401,-10.96544361,-2.163161278,-1.59802866,0.454601258,-0.892025113
3,-1.446696401,-10.96544361,-2.163161278,-1.59802866,0.454601258,-0.892025113
3,-1.590348482,-7.302315235,4.60764122,-1.59802866,0.454601258,-0.892025113
3,-1.810615063,-6.153098583,0.235828862,0.875380397,0.411324918,0.190415874
3,-1.810615063,-6.153098583,0.235828862,0.875380397,0.411324918,0.190415874
3,-1.810615063,-6.153098583,0.235828862,0.875380397,0.411324918,0.190415874
3,-2.619855165,-5.066130638,0.274136096,0.875380397,0.411324918,0.190415874
3,-2.619855165,-5.066130638,0.274136096,0.875380397,0.411324918,0.190415874
3,-3.381211281,-4.477157116,0.111330383,0.875380397,0.411324918,0.190415874
3,8.680776596,-15.86876869,-7.995436668,0.875380397,0.411324918,0.190415874
3,8.680776596,-15.86876869,-7.995436668,0.875380397,0.411324918,0.190415874
3,8.680776596,-15.86876869,-7.995436668,0.875380397,0.411324918,0.190415874
3,8.680776596,-15.86876869,-7.995436668,0.875380397,0.411324918,0.190415874
3,8.680776596,-15.86876869,-7.995436668,0.875380397,0.411324918,0.190415874
3,1.07679224,-9.174580574,-3.436876535,0.875380397,0.411324918,0.190415874
3,-3.831321239,-2.604891539,0.89184016,1.293762684,-0.117711633,0.332362264
3,-3.831321239,-2.604891539,0.89184016,1.293762684,-0.117711633,0.332362264
3,-3.831321239,-2.604891539,0.89184016,1.293762684,-0.117711633,0.332362264
3,-3.831321239,-2.604891539,0.89184016,1.293762684,-0.117711633,0.332362264
3,-2.916736126,-6.205770969,2.615665436,1.293762684,-0.117711633,0.332362264
3,-2.911947727,-11.22401714,3.142389774,1.293762684,-0.117711633,0.332362264
3,-0.747589469,-12.80897903,3.836708307,1.293762684,-0.117711633,0.332362264
3,0.459088176,-9.883264542,2.52947402,1.293762684,-0.117711633,0.332362264
3,0.459088176,-9.883264542,2.52947402,1.293762684,-0.117711633,0.332362264
3,0.459088176,-9.883264542,2.52947402,1.293762684,-0.117711633,0.332362264
3,0.459088176,-9.883264542,2.52947402,1.293762684,-0.117711633,0.332362264
3,0.459088176,-9.883264542,2.52947402,1.293762684,-0.117711633,0.332362264
3,0.459088176,-9.883264542,2.52947402,1.293762684,-0.117711633,0.332362264
3,0.459088176,-9.883264542,2.52947402,1.293762684,-0.117711633,0.332362264
3,-0.115520231,-8.987833023,1.950077295,-1.877527118,-0.354333311,-0.423442304
3,2.623446465,-11.11388397,1.418564558,-1.877527118,-0.354333311,-0.423442304
3,2.623446465,-11.11388397,1.418564558,-1.877527118,-0.354333311,-0.423442304
3,2.623446465,-11.11388397,1.418564558,-1.877527118,-0.354333311,-0.423442304
3,2.623446465,-11.11388397,1.418564558,-1.877527118,-0.354333311,-0.423442304
3,2.623446465,-11.11388397,1.418564558,-1.877527118,-0.354333311,-0.423442304
3,2.623446465,-11.11388397,1.418564558,-1.877527118,-0.354333311,-0.423442304
3,2.623446465,-11.11388397,1.418564558,-1.877527118,-0.354333311,-0.423442304
3,1.402403593,-12.34929276,-5.462371349,-1.877527118,-0.354333311,-0.423442304
3,-2.246359825,-13.5128746,3.750516891,-0.469381779,-1.128780007,-0.380032808
3,-2.246359825,-13.5128746,3.750516891,-0.469381779,-1.128780007,-0.380032808
3,-2.246359825,-13.5128746,3.750516891,-0.469381779,-1.128780007,-0.380032808
3,-3.462614298,-14.41309452,3.487154722,-0.469381779,-1.128780007,-0.380032808
3,-3.462614298,-14.41309452,3.487154722,-0.469381779,-1.128780007,-0.380032808
3,-3.462614298,-14.41309452,3.487154722,-0.469381779,-1.128780007,-0.380032808
3,-1.585560083,-7.939172745,1.691503525,-0.469381779,-1.128780007,-0.380032808
3,-0.656609833,-7.699752808,0.374692559,-0.469381779,-1.128780007,-0.380032808
3,-0.656609833,-7.699752808,0.374692559,-0.469381779,-1.128780007,-0.380032808
3,-0.656609833,-7.699752808,0.374692559,-0.469381779,-1.128780007,-0.380032808
3,-0.656609833,-7.699752808,0.374692559,-0.469381779,-1.128780007,-0.380032808
3,-0.656609833,-7.699752808,0.374692559,-0.469381779,-1.128780007,-0.380032808
3,-3.002927542,-4.932055473,0.441730201,-0.469381779,-1.128780007,-0.380032808
3,2.37923789,-8.781931877,-4.356249809,0.502138674,0.296409607,0.249271691
3,2.37923789,-8.781931877,-4.356249809,0.502138674,0.296409607,0.249271691
3,2.37923789,-8.781931877,-4.356249809,0.502138674,0.296409607,0.249271691
3,2.37923789,-8.781931877,-4.356249809,0.502138674,0.296409607,0.249271691
3,2.37923789,-8.781931877,-4.356249809,0.502138674,0.296409607,0.249271691
3,7.723096371,-18.68913841,-10.90678596,0.502138674,0.296409607,0.249271691
3,8.35995388,-15.64850235,-7.751227856,0.502138674,0.296409607,0.249271691
3,5.218760967,-9.533711433,-6.24766922,0.502138674,0.296409607,0.249271691
3,-3.649361849,-3.112462282,1.634042621,1.241298437,0.280563802,0.317848027
3,-3.649361849,-3.112462282,1.634042621,1.241298437,0.280563802,0.317848027
3,-3.649361849,-3.112462282,1.634042621,1.241298437,0.280563802,0.317848027
3,-3.649361849,-3.112462282,1.634042621,1.241298437,0.280563802,0.317848027
3,-3.649361849,-3.112462282,1.634042621,1.241298437,0.280563802,0.317848027
3,-3.649361849,-3.112462282,1.634042621,1.241298437,0.280563802,0.317848027
